scene_stimulus,scene_label,scene_img,correct_key,thisN,thisTrialN,thisRepN,conditionFile,scene_image,scene_name,scene_present,spaceKey.keys,spaceKey.rt,spaceKey.duration,group,Image1,Image2,Image3,scene_name_showALL,key_p1_2.keys,key_p1_2.rt,key_p1_2.duration,scene_name_p2,key_part2.keys,key_part2.corr,key_part2.rt,key_part2.duration,scene_label_loader.thisRepN,scene_label_loader.thisTrialN,scene_label_loader.thisN,scene_label_loader.thisIndex,groups_loop.thisRepN,groups_loop.thisTrialN,groups_loop.thisN,groups_loop.thisIndex,trials_loop.thisRepN,trials_loop.thisTrialN,trials_loop.thisN,trials_loop.thisIndex,groups_loop_p1_2.thisRepN,groups_loop_p1_2.thisTrialN,groups_loop_p1_2.thisN,groups_loop_p1_2.thisIndex,part2_loop.thisRepN,part2_loop.thisTrialN,part2_loop.thisN,part2_loop.thisIndex,thisRow.t,notes,instructions_overall.started,text_instructions.started,key_welcome.started,instructions_overall.stopped,key_welcome.keys,key_welcome.rt,key_welcome.duration,scene_label_2.started,scene_label_2.stopped,p1_instruction.started,txt_insturctions_p1.started,key_instructions_p1.started,p1_instruction.stopped,key_instructions_p1.keys,key_instructions_p1.rt,key_instructions_p1.duration,p1.started,trial_image.started,scene_name_part1.started,text_scenename.started,txt_memorize.started,spaceKey.started,p1.stopped,trials_loop.spaceKey.keys,trials_loop.spaceKey.rt,trials_loop.spaceKey.duration,p1_2_instructions.started,text_p1_2_instructions.started,key_p1_2_instructions.started,p1_2_instructions.stopped,key_p1_2_instructions.keys,key_p1_2_instructions.rt,key_p1_2_instructions.duration,p1_2_showALL_2.started,image_left.started,image_center.started,image_right.started,key_p1_2.started,txt_scenename_showALL.started,p1_2_showALL_2.stopped,groups_loop_p1_2.key_p1_2.keys,groups_loop_p1_2.key_p1_2.rt,groups_loop_p1_2.key_p1_2.duration,p1_3_instructions_wide.started,text_instructions_p1_3.started,key_instructions_p1_3.started,p1_3_instructions_wide.stopped,key_instructions_p1_3.keys,key_instructions_p1_3.rt,key_instructions_p1_3.duration,p1_compare.started,img1.started,img2.started,img3.started,img4.started,label1.started,label2.started,label3.started,label4.started,key_p1_compare.started,p1_compare.stopped,key_p1_compare.keys,key_p1_compare.rt,key_p1_compare.duration,p1_3_instructions_close.started,text_instructions_p1.started,key_instructions_p1_4.started,p1_3_instructions_close.stopped,key_instructions_p1_4.keys,key_instructions_p1_4.rt,key_instructions_p1_4.duration,p1_compare_2.started,img1_2.started,img2_2.started,img3_2.started,img4_2.started,label1_2.started,label2_2.started,label3_2.started,label4_2.started,key_p1_compare_2.started,p1_compare_2.stopped,key_p1_compare_2.keys,key_p1_compare_2.rt,key_p1_compare_2.duration,p2_instructions.started,text_instructions_part2.started,key_resp.started,p2_instructions.stopped,key_resp.keys,key_resp.rt,key_resp.duration,p2.started,scene_part2.started,p2.stopped,part2_question.started,text_part2_question.started,key_part2.started,part2_question.stopped,part2_loop.key_part2.keys,part2_loop.key_part2.corr,part2_loop.key_part2.rt,part2_loop.key_part2.duration,part2_feedback.started,text_part2_feedback.started,part2_feedback.stopped,text_part2_feedback.stopped,part3_instructions_2.started,text_part3_instructions_2.started,key_part3_instructions_2.started,key_part3_instructions_2.stopped,participant,session,date,expName,expVersion,psychopyVersion,frameRate,expStart,
,,,,,,,,,,,,,,,,,,,,,,,,,,,,,,,,,,,,,,,,,,,,,,,,,0.040905124973505735,0.0506483749486506,0.9954272919567302,2.188996583921835,space,0.842461458989419,None,,,,,,,,,,,,,,,,,,,,,,,,,,,,,,,,,,,,,,,,,,,,,,,,,,,,,,,,,,,,,,,,,,,,,,,,,,,,,,,,,,,,,,,,,,,,,,,,,,,,,,,,,510,001,2026-03-29_17h51.02.356,TEST_training_task,,2025.2.4,None,2026-03-29 17h51.03.357345 +0200,
JA,Malbow,stimuli/TESTscenes/JA_1.jpg,1,0,0,0,,,,,,,,,,,,,,,,,,,,,0,0,0,0,,,,,,,,,,,,,,,,,2.231840124935843,,,,,,,,,2.207779916934669,2.2078302919398993,,,,,,,,,,,,,,,,,,,,,,,,,,,,,,,,,,,,,,,,,,,,,,,,,,,,,,,,,,,,,,,,,,,,,,,,,,,,,,,,,,,,,,,,,,,,,,,,,,,,,,,510,001,2026-03-29_17h51.02.356,TEST_training_task,,2025.2.4,None,2026-03-29 17h51.03.357345 +0200,
JB,Negvi,stimuli/TESTscenes/JB_1.jpg,2,1,1,0,,,,,,,,,,,,,,,,,,,,,0,1,1,1,,,,,,,,,,,,,,,,,2.231840124935843,,,,,,,,,2.2079141669673845,2.2079467088915408,,,,,,,,,,,,,,,,,,,,,,,,,,,,,,,,,,,,,,,,,,,,,,,,,,,,,,,,,,,,,,,,,,,,,,,,,,,,,,,,,,,,,,,,,,,,,,,,,,,,,,,510,001,2026-03-29_17h51.02.356,TEST_training_task,,2025.2.4,None,2026-03-29 17h51.03.357345 +0200,
UA,Tulon,stimuli/TESTscenes/UA_1.jpg,3,2,2,0,,,,,,,,,,,,,,,,,,,,,0,2,2,2,,,,,,,,,,,,,,,,,2.231840124935843,,,,,,,,,2.2080183340003714,2.208046874962747,,,,,,,,,,,,,,,,,,,,,,,,,,,,,,,,,,,,,,,,,,,,,,,,,,,,,,,,,,,,,,,,,,,,,,,,,,,,,,,,,,,,,,,,,,,,,,,,,,,,,,,510,001,2026-03-29_17h51.02.356,TEST_training_task,,2025.2.4,None,2026-03-29 17h51.03.357345 +0200,
UB,Somar,stimuli/TESTscenes/UB_1.jpg,4,3,3,0,,,,,,,,,,,,,,,,,,,,,0,3,3,3,,,,,,,,,,,,,,,,,2.231840124935843,,,,,,,,,2.2081136249471456,2.2081411249237135,,,,,,,,,,,,,,,,,,,,,,,,,,,,,,,,,,,,,,,,,,,,,,,,,,,,,,,,,,,,,,,,,,,,,,,,,,,,,,,,,,,,,,,,,,,,,,,,,,,,,,,510,001,2026-03-29_17h51.02.356,TEST_training_task,,2025.2.4,None,2026-03-29 17h51.03.357345 +0200,
,,,,,,,,,,,,,,,,,,,,,,,,,,,,,,,,,,,,,,,,,,,,,,,,,,,,,,,,,,2.208180208923295,2.231840124935843,2.231840124935843,2.7644684589467943,space,0.5267501251073554,None,,,,,,,,,,,,,,,,,,,,,,,,,,,,,,,,,,,,,,,,,,,,,,,,,,,,,,,,,,,,,,,,,,,,,,,,,,,,,,,,,,,,,,,,,,,,,,,,510,001,2026-03-29_17h51.02.356,TEST_training_task,,2025.2.4,None,2026-03-29 17h51.03.357345 +0200,
,,,1,0,0,0,scenes_group1.xlsx,stimuli/TESTscenes/p1_scenes/p1_JA_1.png,Tulon,This scene is a scene from a jungle named,space,0.804471250041388,None,,,,,,,,,,,,,,,,,,0,0,0,0,0,0,0,0,,,,,,,,,2.8489169999957085,,,,,,,,,,,,,,,,,,2.8372251669643447,2.8489169999957085,2.8489169999957085,2.8489169999957085,2.8489169999957085,3.7630387499229982,4.571527999942191,space,0.804471250041388,None,,,,,,,,,,,,,,,,,,,,,,,,,,,,,,,,,,,,,,,,,,,,,,,,,,,,,,,,,,,,,,,,,,,,,,,,,,,,,,,,,,,,,,510,001,2026-03-29_17h51.02.356,TEST_training_task,,2025.2.4,None,2026-03-29 17h51.03.357345 +0200,
,,,1,1,1,0,scenes_group1.xlsx,stimuli/TESTscenes/p1_scenes/p1_JA_2.png,Tulon,This scene is a scene from a jungle named,space,0.7525094579905272,None,,,,,,,,,,,,,,,,,,0,0,0,0,0,1,1,1,,,,,,,,,4.6268072499660775,,,,,,,,,,,,,,,,,,4.618531166925095,4.6268072499660775,4.6268072499660775,4.6268072499660775,4.6268072499660775,5.574980749981478,6.329698333982378,space,0.7525094579905272,None,,,,,,,,,,,,,,,,,,,,,,,,,,,,,,,,,,,,,,,,,,,,,,,,,,,,,,,,,,,,,,,,,,,,,,,,,,,,,,,,,,,,,,510,001,2026-03-29_17h51.02.356,TEST_training_task,,2025.2.4,None,2026-03-29 17h51.03.357345 +0200,
,,,1,2,2,0,scenes_group1.xlsx,stimuli/TESTscenes/p1_scenes/p1_JA_3.png,Tulon,This scene is a scene from a jungle named,space,0.08300641702953726,None,,,,,,,,,,,,,,,,,,0,0,0,0,0,2,2,2,,,,,,,,,6.3830047498922795,,,,,,,,,,,,,,,,,,6.375964166945778,6.3830047498922795,6.3830047498922795,6.3830047498922795,6.3830047498922795,7.328585291979834,7.4135011669714,space,0.08300641702953726,None,,,,,,,,,,,,,,,,,,,,,,,,,,,,,,,,,,,,,,,,,,,,,,,,,,,,,,,,,,,,,,,,,,,,,,,,,,,,,,,,,,,,,,510,001,2026-03-29_17h51.02.356,TEST_training_task,,2025.2.4,None,2026-03-29 17h51.03.357345 +0200,
,,,,0,0,0,scenes_group1.xlsx,,,,,,,,,,,,,,,,,,,,,,,,0,0,0,0,,,,,,,,,,,,,,,,,,,,,,,,,,,,,,,,,,,,,,,,,,,,,,,,,,,,,,,,,,,,,,,,,,,,,,,,,,,,,,,,,,,,,,,,,,,,,,,,,,,,,,,,,,,,,,,,,,,,,,,,,,,,,,510,001,2026-03-29_17h51.02.356,TEST_training_task,,2025.2.4,None,2026-03-29 17h51.03.357345 +0200,
,,,2,0,0,0,scenes_group2.xlsx,stimuli/TESTscenes/p1_scenes/p1_JB_1.png,Malbow,This is a scene from a jungle named,space,0.19371391599997878,None,,,,,,,,,,,,,,,,,,0,1,1,1,0,0,0,0,,,,,,,,,7.482593208900653,,,,,,,,,,,,,,,,,,7.474136041942984,7.482593208900653,7.482593208900653,7.482593208900653,7.482593208900653,8.412644249969162,8.613509708899073,space,0.19371391599997878,None,,,,,,,,,,,,,,,,,,,,,,,,,,,,,,,,,,,,,,,,,,,,,,,,,,,,,,,,,,,,,,,,,,,,,,,,,,,,,,,,,,,,,,510,001,2026-03-29_17h51.02.356,TEST_training_task,,2025.2.4,None,2026-03-29 17h51.03.357345 +0200,
,,,2,1,1,0,scenes_group2.xlsx,stimuli/TESTscenes/p1_scenes/p1_JB_2.png,Malbow,This is a scene from a jungle named,space,0.1728317920351401,None,,,,,,,,,,,,,,,,,,0,1,1,1,0,1,1,1,,,,,,,,,8.668988791992888,,,,,,,,,,,,,,,,,,8.660881458898075,8.668988791992888,8.668988791992888,8.668988791992888,8.668988791992888,9.603475208976306,9.781248291954398,space,0.1728317920351401,None,,,,,,,,,,,,,,,,,,,,,,,,,,,,,,,,,,,,,,,,,,,,,,,,,,,,,,,,,,,,,,,,,,,,,,,,,,,,,,,,,,,,,,510,001,2026-03-29_17h51.02.356,TEST_training_task,,2025.2.4,None,2026-03-29 17h51.03.357345 +0200,
,,,2,2,2,0,scenes_group2.xlsx,stimuli/TESTscenes/p1_scenes/p1_JB_3.png,Malbow,This is a scene from a jungle named,space,0.0673492499627173,None,,,,,,,,,,,,,,,,,,0,1,1,1,0,2,2,2,,,,,,,,,9.838078749948181,,,,,,,,,,,,,,,,,,9.829738708911464,9.838078749948181,9.838078749948181,9.838078749948181,9.838078749948181,10.779930124990642,10.854154041968286,space,0.0673492499627173,None,,,,,,,,,,,,,,,,,,,,,,,,,,,,,,,,,,,,,,,,,,,,,,,,,,,,,,,,,,,,,,,,,,,,,,,,,,,,,,,,,,,,,,510,001,2026-03-29_17h51.02.356,TEST_training_task,,2025.2.4,None,2026-03-29 17h51.03.357345 +0200,
,,,,1,1,0,scenes_group2.xlsx,,,,,,,,,,,,,,,,,,,,,,,,0,1,1,1,,,,,,,,,,,,,,,,,,,,,,,,,,,,,,,,,,,,,,,,,,,,,,,,,,,,,,,,,,,,,,,,,,,,,,,,,,,,,,,,,,,,,,,,,,,,,,,,,,,,,,,,,,,,,,,,,,,,,,,,,,,,,,510,001,2026-03-29_17h51.02.356,TEST_training_task,,2025.2.4,None,2026-03-29 17h51.03.357345 +0200,
,,,3,0,0,0,scenes_group3.xlsx,stimuli/TESTscenes/p1_scenes/p1_UA_1.png,Negvi,This is a scene from a sea named,space,0.1153536660131067,None,,,,,,,,,,,,,,,,,,0,2,2,2,0,0,0,0,,,,,,,,,10.910055416985415,,,,,,,,,,,,,,,,,,10.90116337488871,10.910055416985415,10.910055416985415,10.910055416985415,10.910055416985415,11.851989249931648,11.97098208393436,space,0.1153536660131067,None,,,,,,,,,,,,,,,,,,,,,,,,,,,,,,,,,,,,,,,,,,,,,,,,,,,,,,,,,,,,,,,,,,,,,,,,,,,,,,,,,,,,,,510,001,2026-03-29_17h51.02.356,TEST_training_task,,2025.2.4,None,2026-03-29 17h51.03.357345 +0200,
,,,3,1,1,0,scenes_group3.xlsx,stimuli/TESTscenes/p1_scenes/p1_UA_2.png,Negvi,This is a scene from a sea named,space,0.7746558750513941,None,,,,,,,,,,,,,,,,,,0,2,2,2,0,1,1,1,,,,,,,,,12.024861499899998,,,,,,,,,,,,,,,,,,12.01663866697345,12.024861499899998,12.024861499899998,12.024861499899998,12.024861499899998,12.979618291952647,13.764415333978832,space,0.7746558750513941,None,,,,,,,,,,,,,,,,,,,,,,,,,,,,,,,,,,,,,,,,,,,,,,,,,,,,,,,,,,,,,,,,,,,,,,,,,,,,,,,,,,,,,,510,001,2026-03-29_17h51.02.356,TEST_training_task,,2025.2.4,None,2026-03-29 17h51.03.357345 +0200,
,,,3,2,2,0,scenes_group3.xlsx,stimuli/TESTscenes/p1_scenes/p1_UA_3.png,Negvi,This is a scene from a sea named,space,0.7112027080729604,None,,,,,,,,,,,,,,,,,,0,2,2,2,0,2,2,2,,,,,,,,,13.816444208961911,,,,,,,,,,,,,,,,,,13.80837183399126,13.816444208961911,13.816444208961911,13.816444208961911,13.816444208961911,14.763074041926302,15.480085333925672,space,0.7112027080729604,None,,,,,,,,,,,,,,,,,,,,,,,,,,,,,,,,,,,,,,,,,,,,,,,,,,,,,,,,,,,,,,,,,,,,,,,,,,,,,,,,,,,,,,510,001,2026-03-29_17h51.02.356,TEST_training_task,,2025.2.4,None,2026-03-29 17h51.03.357345 +0200,
,,,,2,2,0,scenes_group3.xlsx,,,,,,,,,,,,,,,,,,,,,,,,0,2,2,2,,,,,,,,,,,,,,,,,,,,,,,,,,,,,,,,,,,,,,,,,,,,,,,,,,,,,,,,,,,,,,,,,,,,,,,,,,,,,,,,,,,,,,,,,,,,,,,,,,,,,,,,,,,,,,,,,,,,,,,,,,,,,,510,001,2026-03-29_17h51.02.356,TEST_training_task,,2025.2.4,None,2026-03-29 17h51.03.357345 +0200,
,,,4,0,0,0,scenes_group4.xlsx,stimuli/TESTscenes/p1_scenes/p1_UB_1.png,Somar,This is a scene from a sea named,space,0.12988633301574737,None,,,,,,,,,,,,,,,,,,0,3,3,3,0,0,0,0,,,,,,,,,15.536489124991931,,,,,,,,,,,,,,,,,,15.528545041917823,15.536489124991931,15.536489124991931,15.536489124991931,15.536489124991931,16.479321916936897,16.61402499990072,space,0.12988633301574737,None,,,,,,,,,,,,,,,,,,,,,,,,,,,,,,,,,,,,,,,,,,,,,,,,,,,,,,,,,,,,,,,,,,,,,,,,,,,,,,,,,,,,,,510,001,2026-03-29_17h51.02.356,TEST_training_task,,2025.2.4,None,2026-03-29 17h51.03.357345 +0200,
,,,4,1,1,0,scenes_group4.xlsx,stimuli/TESTscenes/p1_scenes/p1_UB_2.png,Somar,This is a scene from a sea named,space,0.5999439159641042,None,,,,,,,,,,,,,,,,,,0,3,3,3,0,1,1,1,,,,,,,,,16.66425462497864,,,,,,,,,,,,,,,,,,16.65633795899339,16.66425462497864,16.66425462497864,16.66425462497864,16.66425462497864,17.617148749995977,18.219541833968833,space,0.5999439159641042,None,,,,,,,,,,,,,,,,,,,,,,,,,,,,,,,,,,,,,,,,,,,,,,,,,,,,,,,,,,,,,,,,,,,,,,,,,,,,,,,,,,,,,,510,001,2026-03-29_17h51.02.356,TEST_training_task,,2025.2.4,None,2026-03-29 17h51.03.357345 +0200,
,,,4,2,2,0,scenes_group4.xlsx,stimuli/TESTscenes/p1_scenes/p1_UB_3.png,Somar,This is a scene from a sea named,space,0.06279654207173735,None,,,,,,,,,,,,,,,,,,0,3,3,3,0,2,2,2,,,,,,,,,18.268994083977304,,,,,,,,,,,,,,,,,,18.26097345899325,18.268994083977304,18.268994083977304,18.268994083977304,18.268994083977304,19.211377041996457,19.27949112490751,space,0.06279654207173735,None,,,,,,,,,,,,,,,,,,,,,,,,,,,,,,,,,,,,,,,,,,,,,,,,,,,,,,,,,,,,,,,,,,,,,,,,,,,,,,,,,,,,,,510,001,2026-03-29_17h51.02.356,TEST_training_task,,2025.2.4,None,2026-03-29 17h51.03.357345 +0200,
,,,,3,3,0,scenes_group4.xlsx,,,,,,,,,,,,,,,,,,,,,,,,0,3,3,3,,,,,,,,,,,,,,,,,,,,,,,,,,,,,,,,,,,,,,,,,,,,,,,,,,,,,,,,,,,,,,,,,,,,,,,,,,,,,,,,,,,,,,,,,,,,,,,,,,,,,,,,,,,,,,,,,,,,,,,,,,,,,,510,001,2026-03-29_17h51.02.356,TEST_training_task,,2025.2.4,None,2026-03-29 17h51.03.357345 +0200,
,,,,,,,,,,,,,,,,,,,,,,,,,,,,,,,,,,,,,,,,,,,,,,,,,,,,,,,,,,,,,,,,,,,,,,,,,,,19.28223441692535,19.293240999919362,19.293240999919362,20.214317666948773,space,0.9107650420628488,None,,,,,,,,,,,,,,,,,,,,,,,,,,,,,,,,,,,,,,,,,,,,,,,,,,,,,,,,,,,,,,,,,,,,,,,,,,,,,,,510,001,2026-03-29_17h51.02.356,TEST_training_task,,2025.2.4,None,2026-03-29 17h51.03.357345 +0200,
,,,,0,0,0,,,,,,,,UB,stimuli/TESTscenes/UB_1.jpg,stimuli/TESTscenes/UB_2.jpg,stimuli/TESTscenes/UB_3.jpg,scene_UB_lbl,space,0.8848117500310764,None,,,,,,,,,,,,,,,,,,0,0,0,3,,,,,20.431237916927785,,,,,,,,,,,,,,,,,,,,,,,,,,,,,,,,,,,20.42231945891399,20.431237916927785,20.431237916927785,20.431237916927785,20.431237916927785,20.431237916927785,21.320474249892868,space,0.8848117500310764,None,,,,,,,,,,,,,,,,,,,,,,,,,,,,,,,,,,,,,,,,,,,,,,,,,,,,,,,,,,,,,,,,,,,,,510,001,2026-03-29_17h51.02.356,TEST_training_task,,2025.2.4,None,2026-03-29 17h51.03.357345 +0200,
,,,,1,1,0,,,,,,,,JA,stimuli/TESTscenes/JA_1.jpg,stimuli/TESTscenes/JA_2.jpg,stimuli/TESTscenes/JA_3.jpg,scene_JA_lbl,space,0.9483234160579741,None,,,,,,,,,,,,,,,,,,0,1,1,0,,,,,21.609781958977692,,,,,,,,,,,,,,,,,,,,,,,,,,,,,,,,,,,21.599638249957934,21.609781958977692,21.609781958977692,21.609781958977692,21.609781958977692,21.609781958977692,22.564587666885927,space,0.9483234160579741,None,,,,,,,,,,,,,,,,,,,,,,,,,,,,,,,,,,,,,,,,,,,,,,,,,,,,,,,,,,,,,,,,,,,,,510,001,2026-03-29_17h51.02.356,TEST_training_task,,2025.2.4,None,2026-03-29 17h51.03.357345 +0200,
,,,,2,2,0,,,,,,,,JB,stimuli/TESTscenes/JB_1.jpg,stimuli/TESTscenes/JB_2.jpg,stimuli/TESTscenes/JB_3.jpg,scene_JB_lbl,space,1.1451598750427365,None,,,,,,,,,,,,,,,,,,0,2,2,1,,,,,22.70679183397442,,,,,,,,,,,,,,,,,,,,,,,,,,,,,,,,,,,22.696911791921593,22.70679183397442,22.70679183397442,22.70679183397442,22.70679183397442,22.70679183397442,23.85411708394531,space,1.1451598750427365,None,,,,,,,,,,,,,,,,,,,,,,,,,,,,,,,,,,,,,,,,,,,,,,,,,,,,,,,,,,,,,,,,,,,,,510,001,2026-03-29_17h51.02.356,TEST_training_task,,2025.2.4,None,2026-03-29 17h51.03.357345 +0200,
,,,,3,3,0,,,,,,,,UA,stimuli/TESTscenes/UA_1.jpg,stimuli/TESTscenes/UA_2.jpg,stimuli/TESTscenes/UA_3.jpg,scene_UA_lbl,space,1.1475180829875171,None,,,,,,,,,,,,,,,,,,0,3,3,2,,,,,24.003494208911434,,,,,,,,,,,,,,,,,,,,,,,,,,,,,,,,,,,23.994406374986283,24.003494208911434,24.003494208911434,24.003494208911434,24.003494208911434,24.003494208911434,25.15448770893272,space,1.1475180829875171,None,,,,,,,,,,,,,,,,,,,,,,,,,,,,,,,,,,,,,,,,,,,,,,,,,,,,,,,,,,,,,,,,,,,,,510,001,2026-03-29_17h51.02.356,TEST_training_task,,2025.2.4,None,2026-03-29 17h51.03.357345 +0200,
,,,,,,,,,,,,,,,,,,,,,,,,,,,,,,,,,,,,,,,,,,,,,,,,,,,,,,,,,,,,,,,,,,,,,,,,,,,,,,,,,,,,,,,,,,,,25.154711291892454,25.166086083976552,25.166086083976552,26.920285999891348,space,1.7498220420675352,None,,,,,,,,,,,,,,,,,,,,,,,,,,,,,,,,,,,,,,,,,,,,,,,,,,,,,,,,,,,,,,510,001,2026-03-29_17h51.02.356,TEST_training_task,,2025.2.4,None,2026-03-29 17h51.03.357345 +0200,
,,,,,,,,,,,,,,,,,,,,,,,,,,,,,,,,,,,,,,,,,,,,,,,,,,,,,,,,,,,,,,,,,,,,,,,,,,,,,,,,,,,,,,,,,,,,,,,,,,,27.15291024988983,27.165063749998808,27.165063749998808,27.165063749998808,27.165063749998808,27.165063749998808,27.165063749998808,27.165063749998808,27.165063749998808,27.165063749998808,28.081084791920148,space,0.9107917079236358,None,,,,,,,,,,,,,,,,,,,,,,,,,,,,,,,,,,,,,,,,,,,,,,,,510,001,2026-03-29_17h51.02.356,TEST_training_task,,2025.2.4,None,2026-03-29 17h51.03.357345 +0200,
,,,,,,,,,,,,,,,,,,,,,,,,,,,,,,,,,,,,,,,,,,,,,,,,,,,,,,,,,,,,,,,,,,,,,,,,,,,,,,,,,,,,,,,,,,,,,,,,,,,,,,,,,,,,,,,,,28.081187541945837,28.094175041886047,28.094175041886047,29.303931958973408,space,1.2066282089799643,None,,,,,,,,,,,,,,,,,,,,,,,,,,,,,,,,,,,,,,,,,510,001,2026-03-29_17h51.02.356,TEST_training_task,,2025.2.4,None,2026-03-29 17h51.03.357345 +0200,
,,,,,,,,,,,,,,,,,,,,,,,,,,,,,,,,,,,,,,,,,,,,,,,,,,,,,,,,,,,,,,,,,,,,,,,,,,,,,,,,,,,,,,,,,,,,,,,,,,,,,,,,,,,,,,,,,,,,,,,,29.635935083962977,29.64941554190591,29.64941554190591,29.64941554190591,29.64941554190591,29.64941554190591,29.64941554190591,29.64941554190591,29.64941554190591,29.64941554190591,30.820243583992124,space,1.1633209999417886,None,,,,,,,,,,,,,,,,,,,,,,,,,,,510,001,2026-03-29_17h51.02.356,TEST_training_task,,2025.2.4,None,2026-03-29 17h51.03.357345 +0200,
,,,,,,,,,,,,,,,,,,,,,,,,,,,,,,,,,,,,,,,,,,,,,,,,,,,,,,,,,,,,,,,,,,,,,,,,,,,,,,,,,,,,,,,,,,,,,,,,,,,,,,,,,,,,,,,,,,,,,,,,,,,,,,,,,,,,,,30.820330083952285,30.8286280418979,30.8286280418979,31.864126999978907,space,1.0281022919807583,None,,,,,,,,,,,,,,,,,,,,510,001,2026-03-29_17h51.02.356,TEST_training_task,,2025.2.4,None,2026-03-29 17h51.03.357345 +0200,
,,,3,0,0,0,,TESTstimuli/TESTscenes/UA_2.jpg,,,,,,,,,,,,,,Negvi,3,1,1.2581594589864835,None,,,,,,,,,,,,,,,,,0,0,0,7,32.206661041942425,,,,,,,,,,,,,,,,,,,,,,,,,,,,,,,,,,,,,,,,,,,,,,,,,,,,,,,,,,,,,,,,,,,,,,,,,,,,,,,,,,,,,,,,,,,,,,32.19867854192853,32.206661041942425,32.868953458964825,32.87888912495691,32.88567124994006,32.88567124994006,34.14838170888834,3,1,1.2581594589864835,None,34.15351012488827,34.16552312497515,35.1526627499843,,,,,,510,001,2026-03-29_17h51.02.356,TEST_training_task,,2025.2.4,None,2026-03-29 17h51.03.357345 +0200,
,,,1,1,1,0,,TESTstimuli/TESTscenes/JA_1.jpg,,,,,,,,,,,,,,Tulon,1,1,0.6768799580167979,None,,,,,,,,,,,,,,,,,0,1,1,0,35.25638862489723,,,,,,,,,,,,,,,,,,,,,,,,,,,,,,,,,,,,,,,,,,,,,,,,,,,,,,,,,,,,,,,,,,,,,,,,,,,,,,,,,,,,,,,,,,,,,,35.25145454192534,35.25638862489723,36.15334699989762,36.15346341696568,36.162788583897054,36.162788583897054,36.84818545891903,1,1,0.6768799580167979,None,36.84854845888913,36.85967741697095,37.84638362494297,37.92360366694629,,,,,510,001,2026-03-29_17h51.02.356,TEST_training_task,,2025.2.4,None,2026-03-29 17h51.03.357345 +0200,
,,,3,2,2,0,,TESTstimuli/TESTscenes/UA_3.jpg,,,,,,,,,,,,,,Negvi,3,1,0.5693135000765324,None,,,,,,,,,,,,,,,,,0,2,2,8,37.92360366694629,,,,,,,,,,,,,,,,,,,,,,,,,,,,,,,,,,,,,,,,,,,,,,,,,,,,,,,,,,,,,,,,,,,,,,,,,,,,,,,,,,,,,,,,,,,,,,37.91874316695612,37.92360366694629,38.849742291960865,38.849828416947275,38.862290416960604,38.862290416960604,39.43702654191293,3,1,0.5693135000765324,None,39.43719666695688,39.448735208949074,40.436169374966994,40.53519291698467,,,,,510,001,2026-03-29_17h51.02.356,TEST_training_task,,2025.2.4,None,2026-03-29 17h51.03.357345 +0200,
,,,1,3,3,0,,TESTstimuli/TESTscenes/JA_3.jpg,,,,,,,,,,,,,,Tulon,1,1,0.8925192499300465,None,,,,,,,,,,,,,,,,,0,3,3,2,40.53519291698467,,,,,,,,,,,,,,,,,,,,,,,,,,,,,,,,,,,,,,,,,,,,,,,,,,,,,,,,,,,,,,,,,,,,,,,,,,,,,,,,,,,,,,,,,,,,,,40.53031733399257,40.53519291698467,41.446732499985956,41.44687420898117,41.452951291925274,41.452951291925274,42.34823866689112,1,1,0.8925192499300465,None,42.34850158391055,42.35981691698544,43.34666649997234,43.398434999980964,,,,,510,001,2026-03-29_17h51.02.356,TEST_training_task,,2025.2.4,None,2026-03-29 17h51.03.357345 +0200,
,,,2,4,4,0,,TESTstimuli/TESTscenes/JB_3.jpg,,,,,,,,,,,,,,Malbow,2,1,0.3961084159091115,None,,,,,,,,,,,,,,,,,0,4,4,5,43.398434999980964,,,,,,,,,,,,,,,,,,,,,,,,,,,,,,,,,,,,,,,,,,,,,,,,,,,,,,,,,,,,,,,,,,,,,,,,,,,,,,,,,,,,,,,,,,,,,,43.39343224989716,43.398434999980964,44.35236066696234,44.35249458393082,44.36334645899478,44.36334645899478,44.76449379196856,2,1,0.3961084159091115,None,44.764622166985646,44.774803666980006,45.76691533392295,,,,,,510,001,2026-03-29_17h51.02.356,TEST_training_task,,2025.2.4,None,2026-03-29 17h51.03.357345 +0200,
,,,4,5,5,0,,TESTstimuli/TESTscenes/UB_2.jpg,,,,,,,,,,,,,,Somar,4,1,1.3753268329892308,None,,,,,,,,,,,,,,,,,0,5,5,10,45.79676070890855,,,,,,,,,,,,,,,,,,,,,,,,,,,,,,,,,,,,,,,,,,,,,,,,,,,,,,,,,,,,,,,,,,,,,,,,,,,,,,,,,,,,,,,,,,,,,,45.792203666991554,45.79676070890855,46.768394416896626,46.76852195896208,46.77999520895537,46.77999520895537,48.16428362496663,4,1,1.3753268329892308,None,48.16724499990232,48.17559329199139,49.163553416961804,49.172630708897486,,,,,510,001,2026-03-29_17h51.02.356,TEST_training_task,,2025.2.4,None,2026-03-29 17h51.03.357345 +0200,
,,,,,,,,,,,,,,,,,,,,,,,,,,,,,,,,,,,,,,,,,,,,,,,,,,,,,,,,,,,,,,,,,,,,,,,,,,,,,,,,,,,,,,,,,,,,,,,,,,,,,,,,,,,,,,,,,,,,,,,,,,,,,,,,,,,,,,,,,,,,,,,,,,,,,,,,,,,,49.16382374998648,49.172630708897486,49.172630708897486,54.16892874997575,,,,,,,,,
