scene_stimulus,scene_label,scene_img,correct_key,thisN,thisTrialN,thisRepN,conditionFile,scene_image,scene_name,scene_present,spaceKey.keys,spaceKey.rt,spaceKey.duration,group,Image1,Image2,Image3,scene_name_showALL,key_p1_2.keys,key_p1_2.rt,key_p1_2.duration,scene_name_p2,key_part2.keys,key_part2.corr,key_part2.rt,key_part2.duration,scene_label_loader.thisRepN,scene_label_loader.thisTrialN,scene_label_loader.thisN,scene_label_loader.thisIndex,groups_loop.thisRepN,groups_loop.thisTrialN,groups_loop.thisN,groups_loop.thisIndex,trials_loop.thisRepN,trials_loop.thisTrialN,trials_loop.thisN,trials_loop.thisIndex,groups_loop_p1_2.thisRepN,groups_loop_p1_2.thisTrialN,groups_loop_p1_2.thisN,groups_loop_p1_2.thisIndex,part2_loop.thisRepN,part2_loop.thisTrialN,part2_loop.thisN,part2_loop.thisIndex,thisRow.t,notes,instructions_overall.started,text_instructions.started,key_welcome.started,instructions_overall.stopped,key_welcome.keys,key_welcome.rt,key_welcome.duration,scene_label_2.started,scene_label_2.stopped,p1_instruction.started,txt_insturctions_p1.started,key_instructions_p1.started,p1_instruction.stopped,key_instructions_p1.keys,key_instructions_p1.rt,key_instructions_p1.duration,p1.started,trial_image.started,scene_name_part1.started,text_scenename.started,txt_memorize.started,spaceKey.started,p1.stopped,trials_loop.spaceKey.keys,trials_loop.spaceKey.rt,trials_loop.spaceKey.duration,p1_2_instructions.started,text_p1_2_instructions.started,key_p1_2_instructions.started,p1_2_instructions.stopped,key_p1_2_instructions.keys,key_p1_2_instructions.rt,key_p1_2_instructions.duration,p1_2_showALL_2.started,image_left.started,image_center.started,image_right.started,key_p1_2.started,txt_scenename_showALL.started,p1_2_showALL_2.stopped,groups_loop_p1_2.key_p1_2.keys,groups_loop_p1_2.key_p1_2.rt,groups_loop_p1_2.key_p1_2.duration,p1_3_instructions_wide.started,text_instructions_p1_3.started,key_instructions_p1_3.started,p1_3_instructions_wide.stopped,key_instructions_p1_3.keys,key_instructions_p1_3.rt,key_instructions_p1_3.duration,p1_compare.started,img1.started,img2.started,img3.started,img4.started,label1.started,label2.started,label3.started,label4.started,key_p1_compare.started,p1_compare.stopped,key_p1_compare.keys,key_p1_compare.rt,key_p1_compare.duration,p1_3_instructions_close.started,text_instructions_p1.started,key_instructions_p1_4.started,p1_3_instructions_close.stopped,key_instructions_p1_4.keys,key_instructions_p1_4.rt,key_instructions_p1_4.duration,p1_compare_2.started,img1_2.started,img2_2.started,img3_2.started,img4_2.started,label1_2.started,label2_2.started,label3_2.started,label4_2.started,key_p1_compare_2.started,p1_compare_2.stopped,key_p1_compare_2.keys,key_p1_compare_2.rt,key_p1_compare_2.duration,p2_instructions.started,text_instructions_part2.started,key_resp.started,p2_instructions.stopped,key_resp.keys,key_resp.rt,key_resp.duration,p2.started,scene_part2.started,p2.stopped,part2_question.started,text_part2_question.started,key_part2.started,part2_question.stopped,part2_loop.key_part2.keys,part2_loop.key_part2.corr,part2_loop.key_part2.rt,part2_loop.key_part2.duration,part2_feedback.started,text_part2_feedback.started,text_part2_feedback.stopped,part2_feedback.stopped,participant,session,date,expName,expVersion,psychopyVersion,expStart,
,,,,,,,,,,,,,,,,,,,,,,,,,,,,,,,,,,,,,,,,,,,,,,,,,0.06143575004534796,0.1134818330174312,0.997656374995131,2.693815666018054,space,1.4099218329647556,None,,,,,,,,,,,,,,,,,,,,,,,,,,,,,,,,,,,,,,,,,,,,,,,,,,,,,,,,,,,,,,,,,,,,,,,,,,,,,,,,,,,,,,,,,,,,,,,,,,,,,312,001,2026-04-26_23h30.29.880,TEST_training_task,,2025.2.4,2026-04-26 23h30.30.925454 +0200,
JA,Negvi,stimuli/TESTscenes/JA_1.jpg,1,0,0,0,,,,,,,,,,,,,,,,,,,,,0,0,0,0,,,,,,,,,,,,,,,,,2.7309156660339795,,,,,,,,,2.706524208013434,2.706575333024375,,,,,,,,,,,,,,,,,,,,,,,,,,,,,,,,,,,,,,,,,,,,,,,,,,,,,,,,,,,,,,,,,,,,,,,,,,,,,,,,,,,,,,,,,,,,,,,,,,,312,001,2026-04-26_23h30.29.880,TEST_training_task,,2025.2.4,2026-04-26 23h30.30.925454 +0200,
JB,Tulon,stimuli/TESTscenes/JB_1.jpg,2,1,1,0,,,,,,,,,,,,,,,,,,,,,0,1,1,1,,,,,,,,,,,,,,,,,2.7309156660339795,,,,,,,,,2.7066657500108704,2.7066993330372497,,,,,,,,,,,,,,,,,,,,,,,,,,,,,,,,,,,,,,,,,,,,,,,,,,,,,,,,,,,,,,,,,,,,,,,,,,,,,,,,,,,,,,,,,,,,,,,,,,,312,001,2026-04-26_23h30.29.880,TEST_training_task,,2025.2.4,2026-04-26 23h30.30.925454 +0200,
UA,Malbow,stimuli/TESTscenes/UA_1.jpg,3,2,2,0,,,,,,,,,,,,,,,,,,,,,0,2,2,2,,,,,,,,,,,,,,,,,2.7309156660339795,,,,,,,,,2.706771500001196,2.7068003750173375,,,,,,,,,,,,,,,,,,,,,,,,,,,,,,,,,,,,,,,,,,,,,,,,,,,,,,,,,,,,,,,,,,,,,,,,,,,,,,,,,,,,,,,,,,,,,,,,,,,312,001,2026-04-26_23h30.29.880,TEST_training_task,,2025.2.4,2026-04-26 23h30.30.925454 +0200,
UB,Somar,stimuli/TESTscenes/UB_1.jpg,4,3,3,0,,,,,,,,,,,,,,,,,,,,,0,3,3,3,,,,,,,,,,,,,,,,,2.7309156660339795,,,,,,,,,2.7068688750150613,2.70689641602803,,,,,,,,,,,,,,,,,,,,,,,,,,,,,,,,,,,,,,,,,,,,,,,,,,,,,,,,,,,,,,,,,,,,,,,,,,,,,,,,,,,,,,,,,,,,,,,,,,,312,001,2026-04-26_23h30.29.880,TEST_training_task,,2025.2.4,2026-04-26 23h30.30.925454 +0200,
,,,,,,,,,,,,,,,,,,,,,,,,,,,,,,,,,,,,,,,,,,,,,,,,,,,,,,,,,,2.706941290991381,2.7309156660339795,2.7309156660339795,4.042942166037392,space,1.3074076250195503,None,,,,,,,,,,,,,,,,,,,,,,,,,,,,,,,,,,,,,,,,,,,,,,,,,,,,,,,,,,,,,,,,,,,,,,,,,,,,,,,,,,,,,,,,,,,,312,001,2026-04-26_23h30.29.880,TEST_training_task,,2025.2.4,2026-04-26 23h30.30.925454 +0200,
,,,3,0,0,0,scenes_group3.xlsx,stimuli/TESTscenes/p1_scenes/p1_UA_1.png,Negvi,This is a scene from a sea named,space,8.653457166976295,None,,,,,,,,,,,,,,,,,,0,0,0,2,0,0,0,0,,,,,,,,,4.143002625030931,,,,,,,,,,,,,,,,,,4.131811875035055,4.143002625030931,4.143002625030931,4.143002625030931,4.143002625030931,4.143002625030931,12.799995500012301,space,8.653457166976295,None,,,,,,,,,,,,,,,,,,,,,,,,,,,,,,,,,,,,,,,,,,,,,,,,,,,,,,,,,,,,,,,,,,,,,,,,,,,,,,,,,,312,001,2026-04-26_23h30.29.880,TEST_training_task,,2025.2.4,2026-04-26 23h30.30.925454 +0200,
,,,3,1,1,0,scenes_group3.xlsx,stimuli/TESTscenes/p1_scenes/p1_UA_2.png,Negvi,This is a scene from a sea named,space,0.9576798329944722,None,,,,,,,,,,,,,,,,,,0,0,0,2,0,1,1,1,,,,,,,,,12.86347616603598,,,,,,,,,,,,,,,,,,12.854587250039913,12.86347616603598,12.86347616603598,12.86347616603598,12.86347616603598,12.86347616603598,13.82433500001207,space,0.9576798329944722,None,,,,,,,,,,,,,,,,,,,,,,,,,,,,,,,,,,,,,,,,,,,,,,,,,,,,,,,,,,,,,,,,,,,,,,,,,,,,,,,,,,312,001,2026-04-26_23h30.29.880,TEST_training_task,,2025.2.4,2026-04-26 23h30.30.925454 +0200,
,,,3,2,2,0,scenes_group3.xlsx,stimuli/TESTscenes/p1_scenes/p1_UA_3.png,Negvi,This is a scene from a sea named,space,0.9259484999929555,None,,,,,,,,,,,,,,,,,,0,0,0,2,0,2,2,2,,,,,,,,,13.877191250037868,,,,,,,,,,,,,,,,,,13.869667874998413,13.877191250037868,13.877191250037868,13.877191250037868,13.877191250037868,13.877191250037868,14.809165208018385,space,0.9259484999929555,None,,,,,,,,,,,,,,,,,,,,,,,,,,,,,,,,,,,,,,,,,,,,,,,,,,,,,,,,,,,,,,,,,,,,,,,,,,,,,,,,,,312,001,2026-04-26_23h30.29.880,TEST_training_task,,2025.2.4,2026-04-26 23h30.30.925454 +0200,
,,,,0,0,0,scenes_group3.xlsx,,,,,,,,,,,,,,,,,,,,,,,,0,0,0,2,,,,,,,,,,,,,,,,,,,,,,,,,,,,,,,,,,,,,,,,,,,,,,,,,,,,,,,,,,,,,,,,,,,,,,,,,,,,,,,,,,,,,,,,,,,,,,,,,,,,,,,,,,,,,,,,,,,,,,,,,,312,001,2026-04-26_23h30.29.880,TEST_training_task,,2025.2.4,2026-04-26 23h30.30.925454 +0200,
,,,2,0,0,0,scenes_group2.xlsx,stimuli/TESTscenes/p1_scenes/p1_JB_1.png,Malbow,This is a scene from a jungle named,space,4.436711249989457,None,,,,,,,,,,,,,,,,,,0,1,1,1,0,0,0,0,,,,,,,,,14.940307290991768,,,,,,,,,,,,,,,,,,14.933107833028771,14.940307290991768,14.940307290991768,14.940307290991768,14.940307290991768,14.940307290991768,19.38371000002371,space,4.436711249989457,None,,,,,,,,,,,,,,,,,,,,,,,,,,,,,,,,,,,,,,,,,,,,,,,,,,,,,,,,,,,,,,,,,,,,,,,,,,,,,,,,,,312,001,2026-04-26_23h30.29.880,TEST_training_task,,2025.2.4,2026-04-26 23h30.30.925454 +0200,
,,,2,1,1,0,scenes_group2.xlsx,stimuli/TESTscenes/p1_scenes/p1_JB_2.png,Malbow,This is a scene from a jungle named,space,0.802052040991839,None,,,,,,,,,,,,,,,,,,0,1,1,1,0,1,1,1,,,,,,,,,19.445730333041865,,,,,,,,,,,,,,,,,,19.438036916020792,19.445730333041865,19.445730333041865,19.445730333041865,19.445730333041865,19.445730333041865,20.2496943330043,space,0.802052040991839,None,,,,,,,,,,,,,,,,,,,,,,,,,,,,,,,,,,,,,,,,,,,,,,,,,,,,,,,,,,,,,,,,,,,,,,,,,,,,,,,,,,312,001,2026-04-26_23h30.29.880,TEST_training_task,,2025.2.4,2026-04-26 23h30.30.925454 +0200,
,,,2,2,2,0,scenes_group2.xlsx,stimuli/TESTscenes/p1_scenes/p1_JB_3.png,Malbow,This is a scene from a jungle named,space,0.686148000007961,None,,,,,,,,,,,,,,,,,,0,1,1,1,0,2,2,2,,,,,,,,,20.305466291029006,,,,,,,,,,,,,,,,,,20.298212166002486,20.305466291029006,20.305466291029006,20.305466291029006,20.305466291029006,20.305466291029006,20.99916150001809,space,0.686148000007961,None,,,,,,,,,,,,,,,,,,,,,,,,,,,,,,,,,,,,,,,,,,,,,,,,,,,,,,,,,,,,,,,,,,,,,,,,,,,,,,,,,,312,001,2026-04-26_23h30.29.880,TEST_training_task,,2025.2.4,2026-04-26 23h30.30.925454 +0200,
,,,,1,1,0,scenes_group2.xlsx,,,,,,,,,,,,,,,,,,,,,,,,0,1,1,1,,,,,,,,,,,,,,,,,,,,,,,,,,,,,,,,,,,,,,,,,,,,,,,,,,,,,,,,,,,,,,,,,,,,,,,,,,,,,,,,,,,,,,,,,,,,,,,,,,,,,,,,,,,,,,,,,,,,,,,,,,312,001,2026-04-26_23h30.29.880,TEST_training_task,,2025.2.4,2026-04-26 23h30.30.925454 +0200,
,,,1,0,0,0,scenes_group1.xlsx,stimuli/TESTscenes/p1_scenes/p1_JA_1.png,Tulon,This scene is a scene from a jungle named,space,4.396378249977715,None,,,,,,,,,,,,,,,,,,0,2,2,0,0,0,0,0,,,,,,,,,21.130366583005525,,,,,,,,,,,,,,,,,,21.12318120803684,21.130366583005525,21.130366583005525,21.130366583005525,21.130366583005525,21.130366583005525,25.530792291043326,space,4.396378249977715,None,,,,,,,,,,,,,,,,,,,,,,,,,,,,,,,,,,,,,,,,,,,,,,,,,,,,,,,,,,,,,,,,,,,,,,,,,,,,,,,,,,312,001,2026-04-26_23h30.29.880,TEST_training_task,,2025.2.4,2026-04-26 23h30.30.925454 +0200,
,,,1,1,1,0,scenes_group1.xlsx,stimuli/TESTscenes/p1_scenes/p1_JA_2.png,Tulon,This scene is a scene from a jungle named,space,0.7291043750010431,None,,,,,,,,,,,,,,,,,,0,2,2,0,0,1,1,1,,,,,,,,,25.596334875037428,,,,,,,,,,,,,,,,,,25.587528875039425,25.596334875037428,25.596334875037428,25.596334875037428,25.596334875037428,25.596334875037428,26.33019599999534,space,0.7291043750010431,None,,,,,,,,,,,,,,,,,,,,,,,,,,,,,,,,,,,,,,,,,,,,,,,,,,,,,,,,,,,,,,,,,,,,,,,,,,,,,,,,,,312,001,2026-04-26_23h30.29.880,TEST_training_task,,2025.2.4,2026-04-26 23h30.30.925454 +0200,
,,,1,2,2,0,scenes_group1.xlsx,stimuli/TESTscenes/p1_scenes/p1_JA_3.png,Tulon,This scene is a scene from a jungle named,space,0.8194816659670323,None,,,,,,,,,,,,,,,,,,0,2,2,0,0,2,2,2,,,,,,,,,26.385935041005723,,,,,,,,,,,,,,,,,,26.37859562499216,26.385935041005723,26.385935041005723,26.385935041005723,26.385935041005723,26.385935041005723,27.209157541044988,space,0.8194816659670323,None,,,,,,,,,,,,,,,,,,,,,,,,,,,,,,,,,,,,,,,,,,,,,,,,,,,,,,,,,,,,,,,,,,,,,,,,,,,,,,,,,,312,001,2026-04-26_23h30.29.880,TEST_training_task,,2025.2.4,2026-04-26 23h30.30.925454 +0200,
,,,,2,2,0,scenes_group1.xlsx,,,,,,,,,,,,,,,,,,,,,,,,0,2,2,0,,,,,,,,,,,,,,,,,,,,,,,,,,,,,,,,,,,,,,,,,,,,,,,,,,,,,,,,,,,,,,,,,,,,,,,,,,,,,,,,,,,,,,,,,,,,,,,,,,,,,,,,,,,,,,,,,,,,,,,,,,312,001,2026-04-26_23h30.29.880,TEST_training_task,,2025.2.4,2026-04-26 23h30.30.925454 +0200,
,,,4,0,0,0,scenes_group4.xlsx,stimuli/TESTscenes/p1_scenes/p1_UB_1.png,Somar,This is a scene from a sea named,space,4.9652473329915665,None,,,,,,,,,,,,,,,,,,0,3,3,3,0,0,0,0,,,,,,,,,27.324311958043836,,,,,,,,,,,,,,,,,,27.316953041008674,27.324311958043836,27.324311958043836,27.324311958043836,27.324311958043836,27.324311958043836,32.29843291599536,space,4.9652473329915665,None,,,,,,,,,,,,,,,,,,,,,,,,,,,,,,,,,,,,,,,,,,,,,,,,,,,,,,,,,,,,,,,,,,,,,,,,,,,,,,,,,,312,001,2026-04-26_23h30.29.880,TEST_training_task,,2025.2.4,2026-04-26 23h30.30.925454 +0200,
,,,4,1,1,0,scenes_group4.xlsx,stimuli/TESTscenes/p1_scenes/p1_UB_2.png,Somar,This is a scene from a sea named,space,0.723960957955569,None,,,,,,,,,,,,,,,,,,0,3,3,3,0,1,1,1,,,,,,,,,32.35282745800214,,,,,,,,,,,,,,,,,,32.345015583036,32.35282745800214,32.35282745800214,32.35282745800214,32.35282745800214,32.35282745800214,33.082172250025906,space,0.723960957955569,None,,,,,,,,,,,,,,,,,,,,,,,,,,,,,,,,,,,,,,,,,,,,,,,,,,,,,,,,,,,,,,,,,,,,,,,,,,,,,,,,,,312,001,2026-04-26_23h30.29.880,TEST_training_task,,2025.2.4,2026-04-26 23h30.30.925454 +0200,
,,,4,2,2,0,scenes_group4.xlsx,stimuli/TESTscenes/p1_scenes/p1_UB_3.png,Somar,This is a scene from a sea named,space,0.843387792003341,None,,,,,,,,,,,,,,,,,,0,3,3,3,0,2,2,2,,,,,,,,,33.13274316600291,,,,,,,,,,,,,,,,,,33.12564037501579,33.13274316600291,33.13274316600291,33.13274316600291,33.13274316600291,33.13274316600291,33.98110579099739,space,0.843387792003341,None,,,,,,,,,,,,,,,,,,,,,,,,,,,,,,,,,,,,,,,,,,,,,,,,,,,,,,,,,,,,,,,,,,,,,,,,,,,,,,,,,,312,001,2026-04-26_23h30.29.880,TEST_training_task,,2025.2.4,2026-04-26 23h30.30.925454 +0200,
,,,,3,3,0,scenes_group4.xlsx,,,,,,,,,,,,,,,,,,,,,,,,0,3,3,3,,,,,,,,,,,,,,,,,,,,,,,,,,,,,,,,,,,,,,,,,,,,,,,,,,,,,,,,,,,,,,,,,,,,,,,,,,,,,,,,,,,,,,,,,,,,,,,,,,,,,,,,,,,,,,,,,,,,,,,,,,312,001,2026-04-26_23h30.29.880,TEST_training_task,,2025.2.4,2026-04-26 23h30.30.925454 +0200,
,,,,,,,,,,,,,,,,,,,,,,,,,,,,,,,,,,,,,,,,,,,,,,,,,,,,,,,,,,,,,,,,,,,,,,,,,,,33.9839152910281,33.9957772080088,33.9957772080088,35.5318538750289,space,1.5344760420266539,None,,,,,,,,,,,,,,,,,,,,,,,,,,,,,,,,,,,,,,,,,,,,,,,,,,,,,,,,,,,,,,,,,,,,,,,,,,,312,001,2026-04-26_23h30.29.880,TEST_training_task,,2025.2.4,2026-04-26 23h30.30.925454 +0200,
,,,,0,0,0,,,,,,,,UA,stimuli/TESTscenes/UA_1.jpg,stimuli/TESTscenes/UA_2.jpg,stimuli/TESTscenes/UA_3.jpg,scene_UA_lbl,space,2.0768551250221208,None,,,,,,,,,,,,,,,,,,0,0,0,2,,,,,35.62821416603401,,,,,,,,,,,,,,,,,,,,,,,,,,,,,,,,,,,35.61811987502733,35.62821416603401,35.62821416603401,35.62821416603401,35.62821416603401,35.62821416603401,37.707394124998245,space,2.0768551250221208,None,,,,,,,,,,,,,,,,,,,,,,,,,,,,,,,,,,,,,,,,,,,,,,,,,,,,,,,,,,,,,,,,,312,001,2026-04-26_23h30.29.880,TEST_training_task,,2025.2.4,2026-04-26 23h30.30.925454 +0200,
,,,,1,1,0,,,,,,,,JB,stimuli/TESTscenes/JB_1.jpg,stimuli/TESTscenes/JB_2.jpg,stimuli/TESTscenes/JB_3.jpg,scene_JB_lbl,space,1.2702008329797536,None,,,,,,,,,,,,,,,,,,0,1,1,1,,,,,37.77186050004093,,,,,,,,,,,,,,,,,,,,,,,,,,,,,,,,,,,37.76302283303812,37.77186050004093,37.77186050004093,37.77186050004093,37.77186050004093,37.77186050004093,39.04823141603265,space,1.2702008329797536,None,,,,,,,,,,,,,,,,,,,,,,,,,,,,,,,,,,,,,,,,,,,,,,,,,,,,,,,,,,,,,,,,,312,001,2026-04-26_23h30.29.880,TEST_training_task,,2025.2.4,2026-04-26 23h30.30.925454 +0200,
,,,,2,2,0,,,,,,,,JA,stimuli/TESTscenes/JA_1.jpg,stimuli/TESTscenes/JA_2.jpg,stimuli/TESTscenes/JA_3.jpg,scene_JA_lbl,space,1.672047375002876,None,,,,,,,,,,,,,,,,,,0,2,2,0,,,,,39.110927833011374,,,,,,,,,,,,,,,,,,,,,,,,,,,,,,,,,,,39.10204383300152,39.110927833011374,39.110927833011374,39.110927833011374,39.110927833011374,39.110927833011374,40.791150750010274,space,1.672047375002876,None,,,,,,,,,,,,,,,,,,,,,,,,,,,,,,,,,,,,,,,,,,,,,,,,,,,,,,,,,,,,,,,,,312,001,2026-04-26_23h30.29.880,TEST_training_task,,2025.2.4,2026-04-26 23h30.30.925454 +0200,
,,,,3,3,0,,,,,,,,UB,stimuli/TESTscenes/UB_1.jpg,stimuli/TESTscenes/UB_2.jpg,stimuli/TESTscenes/UB_3.jpg,scene_UB_lbl,space,1.26413045800291,None,,,,,,,,,,,,,,,,,,0,3,3,3,,,,,40.84485929104267,,,,,,,,,,,,,,,,,,,,,,,,,,,,,,,,,,,40.836308958008885,40.84485929104267,40.84485929104267,40.84485929104267,40.84485929104267,40.84485929104267,42.116465166036505,space,1.26413045800291,None,,,,,,,,,,,,,,,,,,,,,,,,,,,,,,,,,,,,,,,,,,,,,,,,,,,,,,,,,,,,,,,,,312,001,2026-04-26_23h30.29.880,TEST_training_task,,2025.2.4,2026-04-26 23h30.30.925454 +0200,
,,,,,,,,,,,,,,,,,,,,,,,,,,,,,,,,,,,,,,,,,,,,,,,,,,,,,,,,,,,,,,,,,,,,,,,,,,,,,,,,,,,,,,,,,,,,42.11668750003446,42.12763470801292,42.12763470801292,43.142845207999926,space,1.008357957995031,None,,,,,,,,,,,,,,,,,,,,,,,,,,,,,,,,,,,,,,,,,,,,,,,,,,,,,,,,,,312,001,2026-04-26_23h30.29.880,TEST_training_task,,2025.2.4,2026-04-26 23h30.30.925454 +0200,
,,,,,,,,,,,,,,,,,,,,,,,,,,,,,,,,,,,,,,,,,,,,,,,,,,,,,,,,,,,,,,,,,,,,,,,,,,,,,,,,,,,,,,,,,,,,,,,,,,,43.224876833031885,43.23539004102349,43.23539004102349,43.23539004102349,43.23539004102349,43.23539004102349,43.23539004102349,43.23539004102349,43.23539004102349,43.23539004102349,49.0738961250172,space,5.830936499987729,None,,,,,,,,,,,,,,,,,,,,,,,,,,,,,,,,,,,,,,,,,,,,312,001,2026-04-26_23h30.29.880,TEST_training_task,,2025.2.4,2026-04-26 23h30.30.925454 +0200,
,,,,,,,,,,,,,,,,,,,,,,,,,,,,,,,,,,,,,,,,,,,,,,,,,,,,,,,,,,,,,,,,,,,,,,,,,,,,,,,,,,,,,,,,,,,,,,,,,,,,,,,,,,,,,,,,,49.073979250038974,49.08281400002306,49.08281400002306,50.425661125045735,space,1.338195291988086,None,,,,,,,,,,,,,,,,,,,,,,,,,,,,,,,,,,,,,312,001,2026-04-26_23h30.29.880,TEST_training_task,,2025.2.4,2026-04-26 23h30.30.925454 +0200,
,,,,,,,,,,,,,,,,,,,,,,,,,,,,,,,,,,,,,,,,,,,,,,,,,,,,,,,,,,,,,,,,,,,,,,,,,,,,,,,,,,,,,,,,,,,,,,,,,,,,,,,,,,,,,,,,,,,,,,,,50.505402583046816,50.518509125045966,50.518509125045966,50.518509125045966,50.518509125045966,50.518509125045966,50.518509125045966,50.518509125045966,50.518509125045966,50.518509125045966,51.55819445801899,space,1.0343791249906644,None,,,,,,,,,,,,,,,,,,,,,,,312,001,2026-04-26_23h30.29.880,TEST_training_task,,2025.2.4,2026-04-26 23h30.30.925454 +0200,
,,,,,,,,,,,,,,,,,,,,,,,,,,,,,,,,,,,,,,,,,,,,,,,,,,,,,,,,,,,,,,,,,,,,,,,,,,,,,,,,,,,,,,,,,,,,,,,,,,,,,,,,,,,,,,,,,,,,,,,,,,,,,,,,,,,,,,51.55829283304047,51.56832129100803,51.56832129100803,52.3316307500354,space,0.7587127499864437,None,,,,,,,,,,,,,,,,312,001,2026-04-26_23h30.29.880,TEST_training_task,,2025.2.4,2026-04-26 23h30.30.925454 +0200,
,,,3,0,0,0,,TESTstimuli/TESTscenes/UA_2.jpg,,,,,,,,,,,,,,Negvi,3,1,0.7289704579743557,None,,,,,,,,,,,,,,,,,0,0,0,7,52.65256662503816,,,,,,,,,,,,,,,,,,,,,,,,,,,,,,,,,,,,,,,,,,,,,,,,,,,,,,,,,,,,,,,,,,,,,,,,,,,,,,,,,,,,,,,,,,,,,,52.64460641599726,52.65256662503816,53.34078462503385,53.35605800000485,53.361980625020806,53.361980625020806,54.098157083033584,3,1,0.7289704579743557,None,54.10342125000898,54.1129700000165,55.12639512500027,55.097037208033726,312,001,2026-04-26_23h30.29.880,TEST_training_task,,2025.2.4,2026-04-26 23h30.30.925454 +0200,
,,,1,1,1,0,,TESTstimuli/TESTscenes/JA_1.jpg,,,,,,,,,,,,,,Tulon,,,,,,,,,,,,,,,,,,,,,0,1,1,0,55.12639512500027,,,,,,,,,,,,,,,,,,,,,,,,,,,,,,,,,,,,,,,,,,,,,,,,,,,,,,,,,,,,,,,,,,,,,,,,,,,,,,,,,,,,,,,,,,,,,,55.12141300004441,55.12639512500027,56.107538208016194,56.10769141599303,56.113970625039656,56.113970625039656,,,,,,,,,,,,,,,,,
