scene_stimulus,scene_label,scene_img,correct_key,thisN,thisTrialN,thisRepN,conditionFile,scene_image,scene_name,scene_present,spaceKey.keys,spaceKey.rt,spaceKey.duration,group,Image1,Image2,Image3,scene_name_showALL,key_p1_2.keys,key_p1_2.rt,key_p1_2.duration,scene_name_p2,key_part2.keys,key_part2.corr,key_part2.rt,key_part2.duration,scene_label_loader.thisRepN,scene_label_loader.thisTrialN,scene_label_loader.thisN,scene_label_loader.thisIndex,groups_loop.thisRepN,groups_loop.thisTrialN,groups_loop.thisN,groups_loop.thisIndex,trials_loop.thisRepN,trials_loop.thisTrialN,trials_loop.thisN,trials_loop.thisIndex,groups_loop_p1_2.thisRepN,groups_loop_p1_2.thisTrialN,groups_loop_p1_2.thisN,groups_loop_p1_2.thisIndex,part2_loop.thisRepN,part2_loop.thisTrialN,part2_loop.thisN,part2_loop.thisIndex,thisRow.t,notes,instructions_overall.started,text_instructions.started,key_welcome.started,instructions_overall.stopped,key_welcome.keys,key_welcome.rt,key_welcome.duration,scene_label_2.started,scene_label_2.stopped,p1_instruction.started,txt_insturctions_p1.started,key_instructions_p1.started,p1_instruction.stopped,key_instructions_p1.keys,key_instructions_p1.rt,key_instructions_p1.duration,p1.started,trial_image.started,scene_name_part1.started,text_scenename.started,txt_memorize.started,spaceKey.started,p1.stopped,trials_loop.spaceKey.keys,trials_loop.spaceKey.rt,trials_loop.spaceKey.duration,p1_2_instructions.started,text_p1_2_instructions.started,key_p1_2_instructions.started,p1_2_instructions.stopped,key_p1_2_instructions.keys,key_p1_2_instructions.rt,key_p1_2_instructions.duration,p1_2_showALL_2.started,image_left.started,image_center.started,image_right.started,key_p1_2.started,txt_scenename_showALL.started,p1_2_showALL_2.stopped,groups_loop_p1_2.key_p1_2.keys,groups_loop_p1_2.key_p1_2.rt,groups_loop_p1_2.key_p1_2.duration,p1_3_instructions_wide.started,text_instructions_p1_3.started,key_instructions_p1_3.started,p1_3_instructions_wide.stopped,key_instructions_p1_3.keys,key_instructions_p1_3.rt,key_instructions_p1_3.duration,p1_compare.started,img1.started,img2.started,img3.started,img4.started,label1.started,label2.started,label3.started,label4.started,key_p1_compare.started,p1_compare.stopped,key_p1_compare.keys,key_p1_compare.rt,key_p1_compare.duration,p1_3_instructions_close.started,text_instructions_p1.started,key_instructions_p1_4.started,p1_3_instructions_close.stopped,key_instructions_p1_4.keys,key_instructions_p1_4.rt,key_instructions_p1_4.duration,p1_compare_2.started,img1_2.started,img2_2.started,img3_2.started,img4_2.started,label1_2.started,label2_2.started,label3_2.started,label4_2.started,key_p1_compare_2.started,p1_compare_2.stopped,key_p1_compare_2.keys,key_p1_compare_2.rt,key_p1_compare_2.duration,p2_instructions.started,text_instructions_part2.started,key_resp.started,p2_instructions.stopped,key_resp.keys,key_resp.rt,key_resp.duration,p2.started,scene_part2.started,p2.stopped,part2_question.started,text_part2_question.started,key_part2.started,part2_question.stopped,part2_loop.key_part2.keys,part2_loop.key_part2.corr,part2_loop.key_part2.rt,part2_loop.key_part2.duration,part2_feedback.started,text_part2_feedback.started,part2_feedback.stopped,text_part2_feedback.stopped,participant,session,date,expName,expVersion,psychopyVersion,expStart,
,,,,,,,,,,,,,,,,,,,,,,,,,,,,,,,,,,,,,,,,,,,,,,,,,0.06320783297996968,0.11515425000106916,0.9968302079942077,1.7285006659803912,space,0.45625887397909537,None,,,,,,,,,,,,,,,,,,,,,,,,,,,,,,,,,,,,,,,,,,,,,,,,,,,,,,,,,,,,,,,,,,,,,,,,,,,,,,,,,,,,,,,,,,,,,,,,,,,,,345,001,2026-04-26_19h17.21.415,TEST_training_task,,2025.2.4,2026-04-26 19h17.22.479766 +0200,
JA,Malbow,stimuli/TESTscenes/JA_1.jpg,1,0,0,0,,,,,,,,,,,,,,,,,,,,,0,0,0,0,,,,,,,,,,,,,,,,,1.765311625029426,,,,,,,,,1.7446222500293516,1.7446726660127752,,,,,,,,,,,,,,,,,,,,,,,,,,,,,,,,,,,,,,,,,,,,,,,,,,,,,,,,,,,,,,,,,,,,,,,,,,,,,,,,,,,,,,,,,,,,,,,,,,,345,001,2026-04-26_19h17.21.415,TEST_training_task,,2025.2.4,2026-04-26 19h17.22.479766 +0200,
JB,Somar,stimuli/TESTscenes/JB_1.jpg,2,1,1,0,,,,,,,,,,,,,,,,,,,,,0,1,1,1,,,,,,,,,,,,,,,,,1.765311625029426,,,,,,,,,1.7447596249985509,1.7447930829948746,,,,,,,,,,,,,,,,,,,,,,,,,,,,,,,,,,,,,,,,,,,,,,,,,,,,,,,,,,,,,,,,,,,,,,,,,,,,,,,,,,,,,,,,,,,,,,,,,,,345,001,2026-04-26_19h17.21.415,TEST_training_task,,2025.2.4,2026-04-26 19h17.22.479766 +0200,
UA,Tulon,stimuli/TESTscenes/UA_1.jpg,3,2,2,0,,,,,,,,,,,,,,,,,,,,,0,2,2,2,,,,,,,,,,,,,,,,,1.765311625029426,,,,,,,,,1.7448640000075102,1.744893499999307,,,,,,,,,,,,,,,,,,,,,,,,,,,,,,,,,,,,,,,,,,,,,,,,,,,,,,,,,,,,,,,,,,,,,,,,,,,,,,,,,,,,,,,,,,,,,,,,,,,345,001,2026-04-26_19h17.21.415,TEST_training_task,,2025.2.4,2026-04-26 19h17.22.479766 +0200,
UB,Negvi,stimuli/TESTscenes/UB_1.jpg,4,3,3,0,,,,,,,,,,,,,,,,,,,,,0,3,3,3,,,,,,,,,,,,,,,,,1.765311625029426,,,,,,,,,1.74496124999132,1.744989250029903,,,,,,,,,,,,,,,,,,,,,,,,,,,,,,,,,,,,,,,,,,,,,,,,,,,,,,,,,,,,,,,,,,,,,,,,,,,,,,,,,,,,,,,,,,,,,,,,,,,345,001,2026-04-26_19h17.21.415,TEST_training_task,,2025.2.4,2026-04-26 19h17.22.479766 +0200,
,,,,,,,,,,,,,,,,,,,,,,,,,,,,,,,,,,,,,,,,,,,,,,,,,,,,,,,,,,1.7450292910216376,1.765311625029426,1.765311625029426,2.4935983329778537,space,0.7204487490234897,None,,,,,,,,,,,,,,,,,,,,,,,,,,,,,,,,,,,,,,,,,,,,,,,,,,,,,,,,,,,,,,,,,,,,,,,,,,,,,,,,,,,,,,,,,,,,345,001,2026-04-26_19h17.21.415,TEST_training_task,,2025.2.4,2026-04-26 19h17.22.479766 +0200,
,,,1,0,0,0,scenes_group1.xlsx,stimuli/TESTscenes/p1_scenes/p1_JA_1.png,Tulon,This scene is a scene from a jungle named,space,2.278051041008439,None,,,,,,,,,,,,,,,,,,0,0,0,0,0,0,0,0,,,,,,,,,2.6406592500279658,,,,,,,,,,,,,,,,,,2.629931707982905,2.6406592500279658,2.6406592500279658,2.6406592500279658,2.6406592500279658,2.6406592500279658,4.925621457980014,space,2.278051041008439,None,,,,,,,,,,,,,,,,,,,,,,,,,,,,,,,,,,,,,,,,,,,,,,,,,,,,,,,,,,,,,,,,,,,,,,,,,,,,,,,,,,345,001,2026-04-26_19h17.21.415,TEST_training_task,,2025.2.4,2026-04-26 19h17.22.479766 +0200,
,,,1,1,1,0,scenes_group1.xlsx,stimuli/TESTscenes/p1_scenes/p1_JA_2.png,Tulon,This scene is a scene from a jungle named,space,1.255199083010666,None,,,,,,,,,,,,,,,,,,0,0,0,0,0,1,1,1,,,,,,,,,4.994469791010488,,,,,,,,,,,,,,,,,,4.98586933297338,4.994469791010488,4.994469791010488,4.994469791010488,4.994469791010488,4.994469791010488,6.259470999997575,space,1.255199083010666,None,,,,,,,,,,,,,,,,,,,,,,,,,,,,,,,,,,,,,,,,,,,,,,,,,,,,,,,,,,,,,,,,,,,,,,,,,,,,,,,,,,345,001,2026-04-26_19h17.21.415,TEST_training_task,,2025.2.4,2026-04-26 19h17.22.479766 +0200,
,,,1,2,2,0,scenes_group1.xlsx,stimuli/TESTscenes/p1_scenes/p1_JA_3.png,Tulon,This scene is a scene from a jungle named,space,1.051679166033864,None,,,,,,,,,,,,,,,,,,0,0,0,0,0,2,2,2,,,,,,,,,6.314991833001841,,,,,,,,,,,,,,,,,,6.307599291030783,6.314991833001841,6.314991833001841,6.314991833001841,6.314991833001841,6.314991833001841,7.376941499998793,space,1.051679166033864,None,,,,,,,,,,,,,,,,,,,,,,,,,,,,,,,,,,,,,,,,,,,,,,,,,,,,,,,,,,,,,,,,,,,,,,,,,,,,,,,,,,345,001,2026-04-26_19h17.21.415,TEST_training_task,,2025.2.4,2026-04-26 19h17.22.479766 +0200,
,,,,0,0,0,scenes_group1.xlsx,,,,,,,,,,,,,,,,,,,,,,,,0,0,0,0,,,,,,,,,,,,,,,,,,,,,,,,,,,,,,,,,,,,,,,,,,,,,,,,,,,,,,,,,,,,,,,,,,,,,,,,,,,,,,,,,,,,,,,,,,,,,,,,,,,,,,,,,,,,,,,,,,,,,,,,,,345,001,2026-04-26_19h17.21.415,TEST_training_task,,2025.2.4,2026-04-26 19h17.22.479766 +0200,
,,,3,0,0,0,scenes_group3.xlsx,stimuli/TESTscenes/p1_scenes/p1_UA_1.png,Negvi,This is a scene from a sea named,space,0.8749805419938639,None,,,,,,,,,,,,,,,,,,0,1,1,2,0,0,0,0,,,,,,,,,7.489584083028603,,,,,,,,,,,,,,,,,,7.4828083330066875,7.489584083028603,7.489584083028603,7.489584083028603,7.489584083028603,7.489584083028603,8.367054165981244,space,0.8749805419938639,None,,,,,,,,,,,,,,,,,,,,,,,,,,,,,,,,,,,,,,,,,,,,,,,,,,,,,,,,,,,,,,,,,,,,,,,,,,,,,,,,,,345,001,2026-04-26_19h17.21.415,TEST_training_task,,2025.2.4,2026-04-26 19h17.22.479766 +0200,
,,,3,1,1,0,scenes_group3.xlsx,stimuli/TESTscenes/p1_scenes/p1_UA_2.png,Negvi,This is a scene from a sea named,space,0.8818089999840595,None,,,,,,,,,,,,,,,,,,0,1,1,2,0,1,1,1,,,,,,,,,8.425768790999427,,,,,,,,,,,,,,,,,,8.418028165993746,8.425768790999427,8.425768790999427,8.425768790999427,8.425768790999427,8.425768790999427,9.315083833003882,space,0.8818089999840595,None,,,,,,,,,,,,,,,,,,,,,,,,,,,,,,,,,,,,,,,,,,,,,,,,,,,,,,,,,,,,,,,,,,,,,,,,,,,,,,,,,,345,001,2026-04-26_19h17.21.415,TEST_training_task,,2025.2.4,2026-04-26 19h17.22.479766 +0200,
,,,3,2,2,0,scenes_group3.xlsx,stimuli/TESTscenes/p1_scenes/p1_UA_3.png,Negvi,This is a scene from a sea named,space,0.7009965410106815,None,,,,,,,,,,,,,,,,,,0,1,1,2,0,2,2,2,,,,,,,,,9.36651870800415,,,,,,,,,,,,,,,,,,9.358808790973853,9.36651870800415,9.36651870800415,9.36651870800415,9.36651870800415,9.36651870800415,10.076629833027255,space,0.7009965410106815,None,,,,,,,,,,,,,,,,,,,,,,,,,,,,,,,,,,,,,,,,,,,,,,,,,,,,,,,,,,,,,,,,,,,,,,,,,,,,,,,,,,345,001,2026-04-26_19h17.21.415,TEST_training_task,,2025.2.4,2026-04-26 19h17.22.479766 +0200,
,,,,1,1,0,scenes_group3.xlsx,,,,,,,,,,,,,,,,,,,,,,,,0,1,1,2,,,,,,,,,,,,,,,,,,,,,,,,,,,,,,,,,,,,,,,,,,,,,,,,,,,,,,,,,,,,,,,,,,,,,,,,,,,,,,,,,,,,,,,,,,,,,,,,,,,,,,,,,,,,,,,,,,,,,,,,,,345,001,2026-04-26_19h17.21.415,TEST_training_task,,2025.2.4,2026-04-26 19h17.22.479766 +0200,
,,,4,0,0,0,scenes_group4.xlsx,stimuli/TESTscenes/p1_scenes/p1_UB_1.png,Somar,This is a scene from a sea named,space,1.065951541007962,None,,,,,,,,,,,,,,,,,,0,2,2,3,0,0,0,0,,,,,,,,,10.205518333008513,,,,,,,,,,,,,,,,,,10.195516582985874,10.205518333008513,10.205518333008513,10.205518333008513,10.205518333008513,10.205518333008513,11.276587540982291,space,1.065951541007962,None,,,,,,,,,,,,,,,,,,,,,,,,,,,,,,,,,,,,,,,,,,,,,,,,,,,,,,,,,,,,,,,,,,,,,,,,,,,,,,,,,,345,001,2026-04-26_19h17.21.415,TEST_training_task,,2025.2.4,2026-04-26 19h17.22.479766 +0200,
,,,4,1,1,0,scenes_group4.xlsx,stimuli/TESTscenes/p1_scenes/p1_UB_2.png,Somar,This is a scene from a sea named,space,0.7097089170129038,None,,,,,,,,,,,,,,,,,,0,2,2,3,0,1,1,1,,,,,,,,,11.332784958009142,,,,,,,,,,,,,,,,,,11.32515054102987,11.332784958009142,11.332784958009142,11.332784958009142,11.332784958009142,11.332784958009142,12.049465499992948,space,0.7097089170129038,None,,,,,,,,,,,,,,,,,,,,,,,,,,,,,,,,,,,,,,,,,,,,,,,,,,,,,,,,,,,,,,,,,,,,,,,,,,,,,,,,,,345,001,2026-04-26_19h17.21.415,TEST_training_task,,2025.2.4,2026-04-26 19h17.22.479766 +0200,
,,,4,2,2,0,scenes_group4.xlsx,stimuli/TESTscenes/p1_scenes/p1_UB_3.png,Somar,This is a scene from a sea named,space,0.7068468329962343,None,,,,,,,,,,,,,,,,,,0,2,2,3,0,2,2,2,,,,,,,,,12.098515000019688,,,,,,,,,,,,,,,,,,12.091344790998846,12.098515000019688,12.098515000019688,12.098515000019688,12.098515000019688,12.098515000019688,12.808866665989626,space,0.7068468329962343,None,,,,,,,,,,,,,,,,,,,,,,,,,,,,,,,,,,,,,,,,,,,,,,,,,,,,,,,,,,,,,,,,,,,,,,,,,,,,,,,,,,345,001,2026-04-26_19h17.21.415,TEST_training_task,,2025.2.4,2026-04-26 19h17.22.479766 +0200,
,,,,2,2,0,scenes_group4.xlsx,,,,,,,,,,,,,,,,,,,,,,,,0,2,2,3,,,,,,,,,,,,,,,,,,,,,,,,,,,,,,,,,,,,,,,,,,,,,,,,,,,,,,,,,,,,,,,,,,,,,,,,,,,,,,,,,,,,,,,,,,,,,,,,,,,,,,,,,,,,,,,,,,,,,,,,,,345,001,2026-04-26_19h17.21.415,TEST_training_task,,2025.2.4,2026-04-26 19h17.22.479766 +0200,
,,,2,0,0,0,scenes_group2.xlsx,stimuli/TESTscenes/p1_scenes/p1_JB_1.png,Malbow,This is a scene from a jungle named,space,0.7077128330129199,None,,,,,,,,,,,,,,,,,,0,3,3,1,0,0,0,0,,,,,,,,,12.92777779098833,,,,,,,,,,,,,,,,,,12.920662958000321,12.92777779098833,12.92777779098833,12.92777779098833,12.92777779098833,12.92777779098833,13.643770208000205,space,0.7077128330129199,None,,,,,,,,,,,,,,,,,,,,,,,,,,,,,,,,,,,,,,,,,,,,,,,,,,,,,,,,,,,,,,,,,,,,,,,,,,,,,,,,,,345,001,2026-04-26_19h17.21.415,TEST_training_task,,2025.2.4,2026-04-26 19h17.22.479766 +0200,
,,,2,1,1,0,scenes_group2.xlsx,stimuli/TESTscenes/p1_scenes/p1_JB_2.png,Malbow,This is a scene from a jungle named,space,0.6699378740158863,None,,,,,,,,,,,,,,,,,,0,3,3,1,0,1,1,1,,,,,,,,,13.704425457981415,,,,,,,,,,,,,,,,,,13.69693149998784,13.704425457981415,13.704425457981415,13.704425457981415,13.704425457981415,13.704425457981415,14.376920290989801,space,0.6699378740158863,None,,,,,,,,,,,,,,,,,,,,,,,,,,,,,,,,,,,,,,,,,,,,,,,,,,,,,,,,,,,,,,,,,,,,,,,,,,,,,,,,,,345,001,2026-04-26_19h17.21.415,TEST_training_task,,2025.2.4,2026-04-26 19h17.22.479766 +0200,
,,,2,2,2,0,scenes_group2.xlsx,stimuli/TESTscenes/p1_scenes/p1_JB_3.png,Malbow,This is a scene from a jungle named,space,0.7046122490428388,None,,,,,,,,,,,,,,,,,,0,3,3,1,0,2,2,2,,,,,,,,,14.432770833023824,,,,,,,,,,,,,,,,,,14.425675457983743,14.432770833023824,14.432770833023824,14.432770833023824,14.432770833023824,14.432770833023824,15.141934583021794,space,0.7046122490428388,None,,,,,,,,,,,,,,,,,,,,,,,,,,,,,,,,,,,,,,,,,,,,,,,,,,,,,,,,,,,,,,,,,,,,,,,,,,,,,,,,,,345,001,2026-04-26_19h17.21.415,TEST_training_task,,2025.2.4,2026-04-26 19h17.22.479766 +0200,
,,,,3,3,0,scenes_group2.xlsx,,,,,,,,,,,,,,,,,,,,,,,,0,3,3,1,,,,,,,,,,,,,,,,,,,,,,,,,,,,,,,,,,,,,,,,,,,,,,,,,,,,,,,,,,,,,,,,,,,,,,,,,,,,,,,,,,,,,,,,,,,,,,,,,,,,,,,,,,,,,,,,,,,,,,,,,,345,001,2026-04-26_19h17.21.415,TEST_training_task,,2025.2.4,2026-04-26 19h17.22.479766 +0200,
,,,,,,,,,,,,,,,,,,,,,,,,,,,,,,,,,,,,,,,,,,,,,,,,,,,,,,,,,,,,,,,,,,,,,,,,,,,15.144675832998473,15.1556127499789,15.1556127499789,16.159674166003242,space,0.9987617500009947,None,,,,,,,,,,,,,,,,,,,,,,,,,,,,,,,,,,,,,,,,,,,,,,,,,,,,,,,,,,,,,,,,,,,,,,,,,,,345,001,2026-04-26_19h17.21.415,TEST_training_task,,2025.2.4,2026-04-26 19h17.22.479766 +0200,
,,,,0,0,0,,,,,,,,UB,stimuli/TESTscenes/UB_1.jpg,stimuli/TESTscenes/UB_2.jpg,stimuli/TESTscenes/UB_3.jpg,scene_UB_lbl,space,4.227814958023373,None,,,,,,,,,,,,,,,,,,0,0,0,3,,,,,16.25531962502282,,,,,,,,,,,,,,,,,,,,,,,,,,,,,,,,,,,16.24522425001487,16.25531962502282,16.25531962502282,16.25531962502282,16.25531962502282,16.25531962502282,20.492029374989215,space,4.227814958023373,None,,,,,,,,,,,,,,,,,,,,,,,,,,,,,,,,,,,,,,,,,,,,,,,,,,,,,,,,,,,,,,,,,345,001,2026-04-26_19h17.21.415,TEST_training_task,,2025.2.4,2026-04-26 19h17.22.479766 +0200,
,,,,1,1,0,,,,,,,,UA,stimuli/TESTscenes/UA_1.jpg,stimuli/TESTscenes/UA_2.jpg,stimuli/TESTscenes/UA_3.jpg,scene_UA_lbl,space,2.817149833019357,None,,,,,,,,,,,,,,,,,,0,1,1,2,,,,,20.54655216599349,,,,,,,,,,,,,,,,,,,,,,,,,,,,,,,,,,,20.538043415988795,20.54655216599349,20.54655216599349,20.54655216599349,20.54655216599349,20.54655216599349,23.36518637498375,space,2.817149833019357,None,,,,,,,,,,,,,,,,,,,,,,,,,,,,,,,,,,,,,,,,,,,,,,,,,,,,,,,,,,,,,,,,,345,001,2026-04-26_19h17.21.415,TEST_training_task,,2025.2.4,2026-04-26 19h17.22.479766 +0200,
,,,,2,2,0,,,,,,,,JA,stimuli/TESTscenes/JA_1.jpg,stimuli/TESTscenes/JA_2.jpg,stimuli/TESTscenes/JA_3.jpg,scene_JA_lbl,space,1.07129004097078,None,,,,,,,,,,,,,,,,,,0,2,2,0,,,,,23.428381124977022,,,,,,,,,,,,,,,,,,,,,,,,,,,,,,,,,,,23.418780290987343,23.428381124977022,23.428381124977022,23.428381124977022,23.428381124977022,23.428381124977022,24.510127208021004,space,1.07129004097078,None,,,,,,,,,,,,,,,,,,,,,,,,,,,,,,,,,,,,,,,,,,,,,,,,,,,,,,,,,,,,,,,,,345,001,2026-04-26_19h17.21.415,TEST_training_task,,2025.2.4,2026-04-26 19h17.22.479766 +0200,
,,,,3,3,0,,,,,,,,JB,stimuli/TESTscenes/JB_1.jpg,stimuli/TESTscenes/JB_2.jpg,stimuli/TESTscenes/JB_3.jpg,scene_JB_lbl,space,1.0689397910027765,None,,,,,,,,,,,,,,,,,,0,3,3,1,,,,,24.57679212500807,,,,,,,,,,,,,,,,,,,,,,,,,,,,,,,,,,,24.56778724998003,24.57679212500807,24.57679212500807,24.57679212500807,24.57679212500807,24.57679212500807,25.64831108303042,space,1.0689397910027765,None,,,,,,,,,,,,,,,,,,,,,,,,,,,,,,,,,,,,,,,,,,,,,,,,,,,,,,,,,,,,,,,,,345,001,2026-04-26_19h17.21.415,TEST_training_task,,2025.2.4,2026-04-26 19h17.22.479766 +0200,
,,,,,,,,,,,,,,,,,,,,,,,,,,,,,,,,,,,,,,,,,,,,,,,,,,,,,,,,,,,,,,,,,,,,,,,,,,,,,,,,,,,,,,,,,,,,25.648531166021712,25.66097650001757,25.66097650001757,26.59341916599078,space,0.9306185410241596,None,,,,,,,,,,,,,,,,,,,,,,,,,,,,,,,,,,,,,,,,,,,,,,,,,,,,,,,,,,345,001,2026-04-26_19h17.21.415,TEST_training_task,,2025.2.4,2026-04-26 19h17.22.479766 +0200,
,,,,,,,,,,,,,,,,,,,,,,,,,,,,,,,,,,,,,,,,,,,,,,,,,,,,,,,,,,,,,,,,,,,,,,,,,,,,,,,,,,,,,,,,,,,,,,,,,,,26.668767083028797,26.67945845797658,26.67945845797658,26.67945845797658,26.67945845797658,26.67945845797658,26.67945845797658,26.67945845797658,26.67945845797658,26.67945845797658,27.66000495798653,space,0.9731167909922078,None,,,,,,,,,,,,,,,,,,,,,,,,,,,,,,,,,,,,,,,,,,,,345,001,2026-04-26_19h17.21.415,TEST_training_task,,2025.2.4,2026-04-26 19h17.22.479766 +0200,
,,,,,,,,,,,,,,,,,,,,,,,,,,,,,,,,,,,,,,,,,,,,,,,,,,,,,,,,,,,,,,,,,,,,,,,,,,,,,,,,,,,,,,,,,,,,,,,,,,,,,,,,,,,,,,,,,27.66010245803045,27.669851874990854,27.669851874990854,28.482559708005283,space,0.8067947920062579,None,,,,,,,,,,,,,,,,,,,,,,,,,,,,,,,,,,,,,345,001,2026-04-26_19h17.21.415,TEST_training_task,,2025.2.4,2026-04-26 19h17.22.479766 +0200,
,,,,,,,,,,,,,,,,,,,,,,,,,,,,,,,,,,,,,,,,,,,,,,,,,,,,,,,,,,,,,,,,,,,,,,,,,,,,,,,,,,,,,,,,,,,,,,,,,,,,,,,,,,,,,,,,,,,,,,,,28.562232750002295,28.5743450410082,28.5743450410082,28.5743450410082,28.5743450410082,28.5743450410082,28.5743450410082,28.5743450410082,28.5743450410082,28.5743450410082,29.36424604099011,space,0.7862284579896368,None,,,,,,,,,,,,,,,,,,,,,,,345,001,2026-04-26_19h17.21.415,TEST_training_task,,2025.2.4,2026-04-26 19h17.22.479766 +0200,
,,,,,,,,,,,,,,,,,,,,,,,,,,,,,,,,,,,,,,,,,,,,,,,,,,,,,,,,,,,,,,,,,,,,,,,,,,,,,,,,,,,,,,,,,,,,,,,,,,,,,,,,,,,,,,,,,,,,,,,,,,,,,,,,,,,,,,29.36430991598172,29.373463957977947,29.373463957977947,30.382191625016276,space,1.0031013329862617,None,,,,,,,,,,,,,,,,345,001,2026-04-26_19h17.21.415,TEST_training_task,,2025.2.4,2026-04-26 19h17.22.479766 +0200,
,,,1,0,0,0,,TESTstimuli/TESTscenes/JA_2.jpg,,,,,,,,,,,,,,Tulon,2,0,1.7712828329531476,None,,,,,,,,,,,,,,,,,0,0,0,1,30.70046929101227,,,,,,,,,,,,,,,,,,,,,,,,,,,,,,,,,,,,,,,,,,,,,,,,,,,,,,,,,,,,,,,,,,,,,,,,,,,,,,,,,,,,,,,,,,,,,,30.694136916019488,30.70046929101227,31.392418915987946,31.409123082994483,31.415254249994177,31.415254249994177,33.194199833029415,2,0,1.7712828329531476,None,33.19895087502664,33.21215920802206,34.197840332984924,,345,001,2026-04-26_19h17.21.415,TEST_training_task,,2025.2.4,2026-04-26 19h17.22.479766 +0200,
,,,2,1,1,0,,TESTstimuli/TESTscenes/JB_2.jpg,,,,,,,,,,,,,,Malbow,2,1,2.11311954096891,None,,,,,,,,,,,,,,,,,0,1,1,4,34.22831266600406,,,,,,,,,,,,,,,,,,,,,,,,,,,,,,,,,,,,,,,,,,,,,,,,,,,,,,,,,,,,,,,,,,,,,,,,,,,,,,,,,,,,,,,,,,,,,,34.22416429099394,34.22831266600406,35.19731995800976,35.19743820797885,35.20827420800924,35.20827420800924,37.32665495801484,2,1,2.11311954096891,None,37.33325245801825,37.343166125006974,38.325911750027444,38.354212291014846,345,001,2026-04-26_19h17.21.415,TEST_training_task,,2025.2.4,2026-04-26 19h17.22.479766 +0200,
,,,4,2,2,0,,TESTstimuli/TESTscenes/UB_2.jpg,,,,,,,,,,,,,,Somar,,,,,,,,,,,,,,,,,,,,,0,2,2,10,38.354212291014846,,,,,,,,,,,,,,,,,,,,,,,,,,,,,,,,,,,,,,,,,,,,,,,,,,,,,,,,,,,,,,,,,,,,,,,,,,,,,,,,,,,,,,,,,,,,,,38.34975645801751,38.354212291014846,39.33100187499076,39.331109791004565,39.34196699998574,39.34196699998574,,,,,,,,,,,,,,,,,
