conditionFile,thisN,thisTrialN,thisRepN,scene_image,scene_name,correct_key,scene_present,spaceKey.keys,spaceKey.rt,spaceKey.duration,group,Image1,Image2,Image3,scene_name_showALL,key_p1_2.keys,key_p1_2.rt,key_p1_2.duration,scene_name_p2,key_part2.keys,key_part2.corr,key_part2.rt,key_part2.duration,groups_loop.thisRepN,groups_loop.thisTrialN,groups_loop.thisN,groups_loop.thisIndex,trials_loop.thisRepN,trials_loop.thisTrialN,trials_loop.thisN,trials_loop.thisIndex,groups_loop_p1_2.thisRepN,groups_loop_p1_2.thisTrialN,groups_loop_p1_2.thisN,groups_loop_p1_2.thisIndex,part2_loop.thisRepN,part2_loop.thisTrialN,part2_loop.thisN,part2_loop.thisIndex,thisRow.t,notes,instructions_overall.started,text_instructions.started,key_welcome.started,instructions_overall.stopped,key_welcome.keys,key_welcome.rt,key_welcome.duration,p1_instruction.started,txt_insturctions_p1.started,key_instructions_p1.started,p1_instruction.stopped,key_instructions_p1.keys,key_instructions_p1.rt,key_instructions_p1.duration,p1.started,trial_image.started,text_scenename.started,txt_memorize.started,spaceKey.started,p1.stopped,trials_loop.spaceKey.keys,trials_loop.spaceKey.rt,trials_loop.spaceKey.duration,p1_2_instructions.started,text_p1_2_instructions.started,key_p1_2_instructions.started,p1_2_instructions.stopped,key_p1_2_instructions.keys,key_p1_2_instructions.rt,key_p1_2_instructions.duration,p1_2_showALL_2.started,image_left.started,image_center.started,image_right.started,key_p1_2.started,txt_scenename_showALL.started,p1_2_showALL_2.stopped,groups_loop_p1_2.key_p1_2.keys,groups_loop_p1_2.key_p1_2.rt,groups_loop_p1_2.key_p1_2.duration,p1_3_instructions_wide.started,text_instructions_p1_3.started,key_instructions_p1_3.started,p1_3_instructions_wide.stopped,key_instructions_p1_3.keys,key_instructions_p1_3.rt,key_instructions_p1_3.duration,p1_compare.started,img1.started,img2.started,img3.started,img4.started,label1.started,label2.started,label3.started,label4.started,key_p1_compare.started,p1_compare.stopped,key_p1_compare.keys,key_p1_compare.rt,key_p1_compare.duration,p1_3_instructions_close.started,text_instructions_p1.started,key_instructions_p1_4.started,p1_3_instructions_close.stopped,key_instructions_p1_4.keys,key_instructions_p1_4.rt,key_instructions_p1_4.duration,p1_compare_2.started,img1_2.started,img2_2.started,img3_2.started,img4_2.started,label1_2.started,label2_2.started,label3_2.started,label4_2.started,key_p1_compare_2.started,p1_compare_2.stopped,key_p1_compare_2.keys,key_p1_compare_2.rt,key_p1_compare_2.duration,p2_instructions.started,text_instructions_part2.started,key_resp.started,p2_instructions.stopped,key_resp.keys,key_resp.rt,key_resp.duration,p2.started,p2.stopped,part2_question.started,text_part2_question.started,key_part2.started,part2_question.stopped,part2_loop.key_part2.keys,part2_loop.key_part2.corr,part2_loop.key_part2.rt,part2_loop.key_part2.duration,part2_feedback.started,text_part2_feedback.started,part2_feedback.stopped,scene_part2.started,text_part2_feedback.stopped,part3_instructions_2.started,text_part3_instructions_2.started,key_part3_instructions_2.started,part3_instructions_2.stopped,key_part3_instructions_2.keys,key_part3_instructions_2.rt,key_part3_instructions_2.duration,participant,session,date,expName,expVersion,psychopyVersion,frameRate,expStart,
,,,,,,,,,,,,,,,,,,,,,,,,,,,,,,,,,,,,,,,,,,0.013221415982116014,0.021541165973758325,0.9950099579873495,1.4554046659904998,space,0.15216649899957702,None,,,,,,,,,,,,,,,,,,,,,,,,,,,,,,,,,,,,,,,,,,,,,,,,,,,,,,,,,,,,,,,,,,,,,,,,,,,,,,,,,,,,,,,,,,,,,,,,,,,,,,,,,276115,001,2026-02-20_21h13.46.223,TEST_training_task,,2025.2.4,None,2026-02-20 21h13.46.670987 +0100,
,,,,,,,,,,,,,,,,,,,,,,,,,,,,,,,,,,,,,,,,,,,,,,,,,1.4554619579866994,1.4815816249756608,1.4815816249756608,2.3626144579902757,space,0.8786204580101185,None,,,,,,,,,,,,,,,,,,,,,,,,,,,,,,,,,,,,,,,,,,,,,,,,,,,,,,,,,,,,,,,,,,,,,,,,,,,,,,,,,,,,,,,,,,,,,,,,,,276115,001,2026-02-20_21h13.46.223,TEST_training_task,,2025.2.4,None,2026-02-20 21h13.46.670987 +0100,
scenes_group2.xlsx,0,0,0,TESTstimuli/TESTscenes/JB_2.jpg,Malbow,2,This is a scene from a jungle named,space,0.8920281659811735,None,,,,,,,,,,,,,,0,0,0,1,0,0,0,1,,,,,,,,,3.852121415984584,,,,,,,,,,,,,,,,3.819685374997789,3.852121415984584,3.852121415984584,3.852121415984584,3.852121415984584,4.7488417079730425,space,0.8920281659811735,None,,,,,,,,,,,,,,,,,,,,,,,,,,,,,,,,,,,,,,,,,,,,,,,,,,,,,,,,,,,,,,,,,,,,,,,,,,,,,,,,,,,,,,,,,276115,001,2026-02-20_21h13.46.223,TEST_training_task,,2025.2.4,None,2026-02-20 21h13.46.670987 +0100,
scenes_group2.xlsx,1,1,0,TESTstimuli/TESTscenes/JB_1.jpg,Malbow,2,This is a scene from a jungle named,space,0.24340887399739586,None,,,,,,,,,,,,,,0,0,0,1,0,1,1,0,,,,,,,,,4.806248790991958,,,,,,,,,,,,,,,,4.797724415984703,4.806248790991958,4.806248790991958,4.806248790991958,5.746940957993502,5.992001082981005,space,0.24340887399739586,None,,,,,,,,,,,,,,,,,,,,,,,,,,,,,,,,,,,,,,,,,,,,,,,,,,,,,,,,,,,,,,,,,,,,,,,,,,,,,,,,,,,,,,,,,276115,001,2026-02-20_21h13.46.223,TEST_training_task,,2025.2.4,None,2026-02-20 21h13.46.670987 +0100,
scenes_group2.xlsx,2,2,0,TESTstimuli/TESTscenes/JB_3.jpg,Malbow,2,This is a scene from a jungle named,space,0.22620470699621364,None,,,,,,,,,,,,,,0,0,0,1,0,2,2,2,,,,,,,,,6.052059582987567,,,,,,,,,,,,,,,,6.044376582984114,6.052059582987567,6.052059582987567,6.052059582987567,6.988821207982255,7.223748707998311,space,0.22620470699621364,None,,,,,,,,,,,,,,,,,,,,,,,,,,,,,,,,,,,,,,,,,,,,,,,,,,,,,,,,,,,,,,,,,,,,,,,,,,,,,,,,,,,,,,,,,276115,001,2026-02-20_21h13.46.223,TEST_training_task,,2025.2.4,None,2026-02-20 21h13.46.670987 +0100,
scenes_group2.xlsx,0,0,0,,,,,,,,,,,,,,,,,,,,,0,0,0,1,,,,,,,,,,,,,,,,,,,,,,,,,,,,,,,,,,,,,,,,,,,,,,,,,,,,,,,,,,,,,,,,,,,,,,,,,,,,,,,,,,,,,,,,,,,,,,,,,,,,,,,,,,,,,,,,,,,,,,,,,,,,,,276115,001,2026-02-20_21h13.46.223,TEST_training_task,,2025.2.4,None,2026-02-20 21h13.46.670987 +0100,
scenes_group1.xlsx,0,0,0,TESTstimuli/TESTscenes/JA_2.jpg,Tulon,1,This scene is a scene from a jungle named,space,0.8966631240036804,None,,,,,,,,,,,,,,0,1,1,0,0,0,0,1,,,,,,,,,8.522230790986214,,,,,,,,,,,,,,,,8.507843457977287,8.522230790986214,8.522230790986214,8.522230790986214,8.522230790986214,9.425036999979056,space,0.8966631240036804,None,,,,,,,,,,,,,,,,,,,,,,,,,,,,,,,,,,,,,,,,,,,,,,,,,,,,,,,,,,,,,,,,,,,,,,,,,,,,,,,,,,,,,,,,,276115,001,2026-02-20_21h13.46.223,TEST_training_task,,2025.2.4,None,2026-02-20 21h13.46.670987 +0100,
scenes_group1.xlsx,1,1,0,TESTstimuli/TESTscenes/JA_1.jpg,Tulon,1,This scene is a scene from a jungle named,space,0.0336829160223715,None,,,,,,,,,,,,,,0,1,1,0,0,1,1,0,,,,,,,,,9.532164540985832,,,,,,,,,,,,,,,,9.523967415996594,9.532164540985832,9.532164540985832,9.532164540985832,10.42217508298927,10.458725249976851,space,0.0336829160223715,None,,,,,,,,,,,,,,,,,,,,,,,,,,,,,,,,,,,,,,,,,,,,,,,,,,,,,,,,,,,,,,,,,,,,,,,,,,,,,,,,,,,,,,,,,276115,001,2026-02-20_21h13.46.223,TEST_training_task,,2025.2.4,None,2026-02-20 21h13.46.670987 +0100,
scenes_group1.xlsx,2,2,0,TESTstimuli/TESTscenes/JA_3.jpg,Tulon,1,This scene is a scene from a jungle named,space,0.4267235829902347,None,,,,,,,,,,,,,,0,1,1,0,0,2,2,2,,,,,,,,,10.560546082997462,,,,,,,,,,,,,,,,10.552678665990243,10.560546082997462,10.560546082997462,10.560546082997462,11.45625887499773,11.89119662498706,space,0.4267235829902347,None,,,,,,,,,,,,,,,,,,,,,,,,,,,,,,,,,,,,,,,,,,,,,,,,,,,,,,,,,,,,,,,,,,,,,,,,,,,,,,,,,,,,,,,,,276115,001,2026-02-20_21h13.46.223,TEST_training_task,,2025.2.4,None,2026-02-20 21h13.46.670987 +0100,
scenes_group1.xlsx,1,1,0,,,,,,,,,,,,,,,,,,,,,0,1,1,0,,,,,,,,,,,,,,,,,,,,,,,,,,,,,,,,,,,,,,,,,,,,,,,,,,,,,,,,,,,,,,,,,,,,,,,,,,,,,,,,,,,,,,,,,,,,,,,,,,,,,,,,,,,,,,,,,,,,,,,,,,,,,,276115,001,2026-02-20_21h13.46.223,TEST_training_task,,2025.2.4,None,2026-02-20 21h13.46.670987 +0100,
scenes_group4.xlsx,0,0,0,TESTstimuli/TESTscenes/UB_3.jpg,Somar,4,This is a scene from a sea named,space,1.1555769580008928,None,,,,,,,,,,,,,,0,2,2,3,0,0,0,2,,,,,,,,,14.179234540992184,,,,,,,,,,,,,,,,14.162596290989313,14.179234540992184,14.179234540992184,14.179234540992184,14.179234540992184,15.341119832999539,space,1.1555769580008928,None,,,,,,,,,,,,,,,,,,,,,,,,,,,,,,,,,,,,,,,,,,,,,,,,,,,,,,,,,,,,,,,,,,,,,,,,,,,,,,,,,,,,,,,,,276115,001,2026-02-20_21h13.46.223,TEST_training_task,,2025.2.4,None,2026-02-20 21h13.46.670987 +0100,
scenes_group4.xlsx,1,1,0,TESTstimuli/TESTscenes/UB_2.jpg,Somar,4,This is a scene from a sea named,space,1.1684656660072505,None,,,,,,,,,,,,,,0,2,2,3,0,1,1,1,,,,,,,,,16.625342832994647,,,,,,,,,,,,,,,,16.60889799997676,16.625342832994647,16.625342832994647,16.625342832994647,16.625342832994647,17.798524040990742,space,1.1684656660072505,None,,,,,,,,,,,,,,,,,,,,,,,,,,,,,,,,,,,,,,,,,,,,,,,,,,,,,,,,,,,,,,,,,,,,,,,,,,,,,,,,,,,,,,,,,276115,001,2026-02-20_21h13.46.223,TEST_training_task,,2025.2.4,None,2026-02-20 21h13.46.670987 +0100,
scenes_group4.xlsx,2,2,0,TESTstimuli/TESTscenes/UB_1.jpg,Somar,4,This is a scene from a sea named,space,1.4211686240159906,None,,,,,,,,,,,,,,0,2,2,3,0,2,2,0,,,,,,,,,18.922591665992513,,,,,,,,,,,,,,,,18.91110649998882,18.922591665992513,18.922591665992513,18.922591665992513,18.922591665992513,20.34805370797403,space,1.4211686240159906,None,,,,,,,,,,,,,,,,,,,,,,,,,,,,,,,,,,,,,,,,,,,,,,,,,,,,,,,,,,,,,,,,,,,,,,,,,,,,,,,,,,,,,,,,,276115,001,2026-02-20_21h13.46.223,TEST_training_task,,2025.2.4,None,2026-02-20 21h13.46.670987 +0100,
scenes_group4.xlsx,2,2,0,,,,,,,,,,,,,,,,,,,,,0,2,2,3,,,,,,,,,,,,,,,,,,,,,,,,,,,,,,,,,,,,,,,,,,,,,,,,,,,,,,,,,,,,,,,,,,,,,,,,,,,,,,,,,,,,,,,,,,,,,,,,,,,,,,,,,,,,,,,,,,,,,,,,,,,,,,276115,001,2026-02-20_21h13.46.223,TEST_training_task,,2025.2.4,None,2026-02-20 21h13.46.670987 +0100,
scenes_group3.xlsx,0,0,0,TESTstimuli/TESTscenes/UA_3.jpg,Negvi,3,This is a scene from a sea named,space,0.33714170701568946,None,,,,,,,,,,,,,,0,3,3,2,0,0,0,2,,,,,,,,,20.410076082975138,,,,,,,,,,,,,,,,20.4011318749981,20.410076082975138,20.410076082975138,20.410076082975138,21.338480207981775,21.679477207973832,space,0.33714170701568946,None,,,,,,,,,,,,,,,,,,,,,,,,,,,,,,,,,,,,,,,,,,,,,,,,,,,,,,,,,,,,,,,,,,,,,,,,,,,,,,,,,,,,,,,,,276115,001,2026-02-20_21h13.46.223,TEST_training_task,,2025.2.4,None,2026-02-20 21h13.46.670987 +0100,
scenes_group3.xlsx,1,1,0,TESTstimuli/TESTscenes/UA_1.jpg,Negvi,3,This is a scene from a sea named,space,0.19940133299678564,None,,,,,,,,,,,,,,0,3,3,2,0,1,1,0,,,,,,,,,21.726266790996306,,,,,,,,,,,,,,,,21.718520499998704,21.726266790996306,21.726266790996306,21.726266790996306,22.6731558329775,22.8742979579838,space,0.19940133299678564,None,,,,,,,,,,,,,,,,,,,,,,,,,,,,,,,,,,,,,,,,,,,,,,,,,,,,,,,,,,,,,,,,,,,,,,,,,,,,,,,,,,,,,,,,,276115,001,2026-02-20_21h13.46.223,TEST_training_task,,2025.2.4,None,2026-02-20 21h13.46.670987 +0100,
scenes_group3.xlsx,2,2,0,TESTstimuli/TESTscenes/UA_2.jpg,Negvi,3,This is a scene from a sea named,space,0.29651158198248595,None,,,,,,,,,,,,,,0,3,3,2,0,2,2,1,,,,,,,,,22.921319374989253,,,,,,,,,,,,,,,,22.9137423329812,22.921319374989253,22.921319374989253,22.921319374989253,23.873133832996245,24.17357324998011,space,0.29651158198248595,None,,,,,,,,,,,,,,,,,,,,,,,,,,,,,,,,,,,,,,,,,,,,,,,,,,,,,,,,,,,,,,,,,,,,,,,,,,,,,,,,,,,,,,,,,276115,001,2026-02-20_21h13.46.223,TEST_training_task,,2025.2.4,None,2026-02-20 21h13.46.670987 +0100,
scenes_group3.xlsx,3,3,0,,,,,,,,,,,,,,,,,,,,,0,3,3,2,,,,,,,,,,,,,,,,,,,,,,,,,,,,,,,,,,,,,,,,,,,,,,,,,,,,,,,,,,,,,,,,,,,,,,,,,,,,,,,,,,,,,,,,,,,,,,,,,,,,,,,,,,,,,,,,,,,,,,,,,,,,,,276115,001,2026-02-20_21h13.46.223,TEST_training_task,,2025.2.4,None,2026-02-20 21h13.46.670987 +0100,
,,,,,,,,,,,,,,,,,,,,,,,,,,,,,,,,,,,,,,,,,,,,,,,,,,,,,,,,,,,,,,,,,24.17631424998399,24.18692845798796,24.18692845798796,25.459491165995132,space,1.2662442910077516,None,,,,,,,,,,,,,,,,,,,,,,,,,,,,,,,,,,,,,,,,,,,,,,,,,,,,,,,,,,,,,,,,,,,,,,,,,,,,,,,,,,276115,001,2026-02-20_21h13.46.223,TEST_training_task,,2025.2.4,None,2026-02-20 21h13.46.670987 +0100,
,0,0,0,,,,,,,,UB,TESTstimuli/TESTscenes/UB_1.jpg,TESTstimuli/TESTscenes/UB_2.jpg,TESTstimuli/TESTscenes/UB_3.jpg,Somar,space,2.8038495410000905,None,,,,,,,,,,,,,,0,0,0,3,,,,,25.57466470799409,,,,,,,,,,,,,,,,,,,,,,,,,,,,,,,,25.566950582986465,25.57466470799409,25.57466470799409,25.57466470799409,25.57466470799409,25.57466470799409,28.39233420797973,space,2.8038495410000905,None,,,,,,,,,,,,,,,,,,,,,,,,,,,,,,,,,,,,,,,,,,,,,,,,,,,,,,,,,,,,,,,,,,,,,,,,276115,001,2026-02-20_21h13.46.223,TEST_training_task,,2025.2.4,None,2026-02-20 21h13.46.670987 +0100,
,1,1,0,,,,,,,,JA,TESTstimuli/TESTscenes/JA_1.jpg,TESTstimuli/TESTscenes/JA_2.jpg,TESTstimuli/TESTscenes/JA_3.jpg,Tulon,space,1.5607382080052048,None,,,,,,,,,,,,,,0,1,1,0,,,,,28.68483808299061,,,,,,,,,,,,,,,,,,,,,,,,,,,,,,,,28.67537045798963,28.68483808299061,28.68483808299061,28.68483808299061,28.68483808299061,28.68483808299061,30.248354999988806,space,1.5607382080052048,None,,,,,,,,,,,,,,,,,,,,,,,,,,,,,,,,,,,,,,,,,,,,,,,,,,,,,,,,,,,,,,,,,,,,,,,,276115,001,2026-02-20_21h13.46.223,TEST_training_task,,2025.2.4,None,2026-02-20 21h13.46.670987 +0100,
,2,2,0,,,,,,,,UA,TESTstimuli/TESTscenes/UA_1.jpg,TESTstimuli/TESTscenes/UA_2.jpg,TESTstimuli/TESTscenes/UA_3.jpg,Negvi,space,2.2664441660162993,None,,,,,,,,,,,,,,0,2,2,2,,,,,30.35202512500109,,,,,,,,,,,,,,,,,,,,,,,,,,,,,,,,30.34380904099089,30.35202512500109,30.35202512500109,30.35202512500109,30.35202512500109,30.35202512500109,32.62462491597398,space,2.2664441660162993,None,,,,,,,,,,,,,,,,,,,,,,,,,,,,,,,,,,,,,,,,,,,,,,,,,,,,,,,,,,,,,,,,,,,,,,,,276115,001,2026-02-20_21h13.46.223,TEST_training_task,,2025.2.4,None,2026-02-20 21h13.46.670987 +0100,
,3,3,0,,,,,,,,JB,TESTstimuli/TESTscenes/JB_1.jpg,TESTstimuli/TESTscenes/JB_2.jpg,TESTstimuli/TESTscenes/JB_3.jpg,Malbow,space,1.885852540988708,None,,,,,,,,,,,,,,0,3,3,1,,,,,32.73458949997439,,,,,,,,,,,,,,,,,,,,,,,,,,,,,,,,32.72648620797554,32.73458949997439,32.73458949997439,32.73458949997439,32.73458949997439,32.73458949997439,34.624132624972844,space,1.885852540988708,None,,,,,,,,,,,,,,,,,,,,,,,,,,,,,,,,,,,,,,,,,,,,,,,,,,,,,,,,,,,,,,,,,,,,,,,,276115,001,2026-02-20_21h13.46.223,TEST_training_task,,2025.2.4,None,2026-02-20 21h13.46.670987 +0100,
,,,,,,,,,,,,,,,,,,,,,,,,,,,,,,,,,,,,,,,,,,,,,,,,,,,,,,,,,,,,,,,,,,,,,,,,,,,,,,,,,,34.62436783299199,34.635662415996194,34.635662415996194,37.174395790993,space,2.5355760410020594,None,,,,,,,,,,,,,,,,,,,,,,,,,,,,,,,,,,,,,,,,,,,,,,,,,,,,,,,,,,,,,,,,,276115,001,2026-02-20_21h13.46.223,TEST_training_task,,2025.2.4,None,2026-02-20 21h13.46.670987 +0100,
,,,,,,,,,,,,,,,,,,,,,,,,,,,,,,,,,,,,,,,,,,,,,,,,,,,,,,,,,,,,,,,,,,,,,,,,,,,,,,,,,,,,,,,,,37.395920874987496,37.406369707983686,37.406369707983686,37.406369707983686,37.406369707983686,37.406369707983686,37.406369707983686,37.406369707983686,37.406369707983686,37.406369707983686,42.68225449998863,space,5.268769248999888,None,,,,,,,,,,,,,,,,,,,,,,,,,,,,,,,,,,,,,,,,,,,,,,,,,,,276115,001,2026-02-20_21h13.46.223,TEST_training_task,,2025.2.4,None,2026-02-20 21h13.46.670987 +0100,
,,,,,,,,,,,,,,,,,,,,,,,,,,,,,,,,,,,,,,,,,,,,,,,,,,,,,,,,,,,,,,,,,,,,,,,,,,,,,,,,,,,,,,,,,,,,,,,,,,,,,,,42.68234595799004,42.69203016598476,42.69203016598476,44.14744337499724,space,1.452132333011832,None,,,,,,,,,,,,,,,,,,,,,,,,,,,,,,,,,,,,,,,,,,,,276115,001,2026-02-20_21h13.46.223,TEST_training_task,,2025.2.4,None,2026-02-20 21h13.46.670987 +0100,
,,,,,,,,,,,,,,,,,,,,,,,,,,,,,,,,,,,,,,,,,,,,,,,,,,,,,,,,,,,,,,,,,,,,,,,,,,,,,,,,,,,,,,,,,,,,,,,,,,,,,,,,,,,,,,44.363979124987964,44.37702258297941,44.37702258297941,44.37702258297941,44.37702258297941,44.37702258297941,44.37702258297941,44.37702258297941,44.37702258297941,44.37702258297941,47.947398582997266,space,3.5650560409994796,None,,,,,,,,,,,,,,,,,,,,,,,,,,,,,,276115,001,2026-02-20_21h13.46.223,TEST_training_task,,2025.2.4,None,2026-02-20 21h13.46.670987 +0100,
,,,,,,,,,,,,,,,,,,,,,,,,,,,,,,,,,,,,,,,,,,,,,,,,,,,,,,,,,,,,,,,,,,,,,,,,,,,,,,,,,,,,,,,,,,,,,,,,,,,,,,,,,,,,,,,,,,,,,,,,,,,,47.947494708001614,47.9726932499907,47.9726932499907,50.53049754098174,space,2.5542010000208393,None,,,,,,,,,,,,,,,,,,,,,,,276115,001,2026-02-20_21h13.46.223,TEST_training_task,,2025.2.4,None,2026-02-20 21h13.46.670987 +0100,
,0,0,0,TESTstimuli/TESTscenes/JA_1.jpg,,1,,,,,,,,,,,,,Tulon,1,1,2.8593460410193074,None,,,,,,,,,,,,,0,0,0,0,52.48482695798157,,,,,,,,,,,,,,,,,,,,,,,,,,,,,,,,,,,,,,,,,,,,,,,,,,,,,,,,,,,,,,,,,,,,,,,,,,,,,,,,,,,,,,,,,,,52.459751249989495,52.4598149159865,52.46520204099943,52.48482695798157,52.48482695798157,55.347302707989,1,1,2.8593460410193074,None,55.3550247909734,55.36565983298351,56.35677874999237,,,,,,,,,,276115,001,2026-02-20_21h13.46.223,TEST_training_task,,2025.2.4,None,2026-02-20 21h13.46.670987 +0100,
,1,1,0,TESTstimuli/TESTscenes/JB_3.jpg,,2,,,,,,,,,,,,,Malbow,2,1,1.4230985830072314,None,,,,,,,,,,,,,0,1,1,5,56.41102033297648,,,,,,,,,,,,,,,,,,,,,,,,,,,,,,,,,,,,,,,,,,,,,,,,,,,,,,,,,,,,,,,,,,,,,,,,,,,,,,,,,,,,,,,,,,,56.40598770798533,57.355877415975556,57.3561732909875,57.3617879159865,57.3617879159865,58.7915791249834,2,1,1.4230985830072314,None,58.791883332974976,58.80339933297364,59.7900376659818,56.41102033297648,59.894700290984474,,,,,,,,276115,001,2026-02-20_21h13.46.223,TEST_training_task,,2025.2.4,None,2026-02-20 21h13.46.670987 +0100,
,2,2,0,TESTstimuli/TESTscenes/JA_3.jpg,,1,,,,,,,,,,,,,Tulon,1,1,0.9993757499905769,None,,,,,,,,,,,,,0,2,2,2,59.894700290984474,,,,,,,,,,,,,,,,,,,,,,,,,,,,,,,,,,,,,,,,,,,,,,,,,,,,,,,,,,,,,,,,,,,,,,,,,,,,,,,,,,,,,,,,,,,59.88984108300065,60.796016332984436,60.79614091597614,60.806240874982905,60.806240874982905,61.807948749978095,1,1,0.9993757499905769,None,61.80818641599035,61.819126540998695,62.80653862498002,59.894700290984474,62.8442598329857,,,,,,,,276115,001,2026-02-20_21h13.46.223,TEST_training_task,,2025.2.4,None,2026-02-20 21h13.46.670987 +0100,
,3,3,0,TESTstimuli/TESTscenes/UB_3.jpg,,4,,,,,,,,,,,,,Somar,2,0,0.47154395800316706,None,,,,,,,,,,,,,0,3,3,11,62.8442598329857,,,,,,,,,,,,,,,,,,,,,,,,,,,,,,,,,,,,,,,,,,,,,,,,,,,,,,,,,,,,,,,,,,,,,,,,,,,,,,,,,,,,,,,,,,,62.83944899999187,63.81218104099389,63.81230112499907,63.822918207995826,63.822918207995826,64.29639783297898,2,0,0.47154395800316706,None,64.30214245797833,64.31194629098172,65.29609691599035,62.8442598329857,65.34030091599561,,,,,,,,276115,001,2026-02-20_21h13.46.223,TEST_training_task,,2025.2.4,None,2026-02-20 21h13.46.670987 +0100,
,4,4,0,TESTstimuli/TESTscenes/UA_3.jpg,,3,,,,,,,,,,,,,Negvi,3,1,0.38915645799716003,None,,,,,,,,,,,,,0,4,4,8,65.34030091599561,,,,,,,,,,,,,,,,,,,,,,,,,,,,,,,,,,,,,,,,,,,,,,,,,,,,,,,,,,,,,,,,,,,,,,,,,,,,,,,,,,,,,,,,,,,65.33553049998591,66.30645916599315,66.30657283298206,66.31237637498998,66.31237637498998,66.70734749999247,3,1,0.38915645799716003,None,66.7114347499737,66.72254133300157,67.70655354097835,65.34030091599561,67.75063012499595,,,,,,,,276115,001,2026-02-20_21h13.46.223,TEST_training_task,,2025.2.4,None,2026-02-20 21h13.46.670987 +0100,
,5,5,0,TESTstimuli/TESTscenes/UA_1.jpg,,3,,,,,,,,,,,,,Negvi,4,0,0.6158186660031788,None,,,,,,,,,,,,,0,5,5,6,67.75063012499595,,,,,,,,,,,,,,,,,,,,,,,,,,,,,,,,,,,,,,,,,,,,,,,,,,,,,,,,,,,,,,,,,,,,,,,,,,,,,,,,,,,,,,,,,,,67.74594283298939,68.71146274998318,68.71159379099845,68.72267299998202,68.72267299998202,69.34133833297528,4,0,0.6158186660031788,None,69.34617083298508,69.35738750000019,70.3440801249817,67.75063012499595,,,,,,,,,276115,001,2026-02-20_21h13.46.223,TEST_training_task,,2025.2.4,None,2026-02-20 21h13.46.670987 +0100,
,6,6,0,TESTstimuli/TESTscenes/JB_1.jpg,,2,,,,,,,,,,,,,Malbow,1,0,0.5991389570117462,None,,,,,,,,,,,,,0,6,6,3,70.38753112498671,,,,,,,,,,,,,,,,,,,,,,,,,,,,,,,,,,,,,,,,,,,,,,,,,,,,,,,,,,,,,,,,,,,,,,,,,,,,,,,,,,,,,,,,,,,70.38272974998108,71.34589349999442,71.34602137497859,71.35615045798477,71.35615045798477,71.95768283298821,1,0,0.5991389570117462,None,71.95788716597599,71.96871699998155,72.956393749977,70.38753112498671,73.00254387498717,,,,,,,,276115,001,2026-02-20_21h13.46.223,TEST_training_task,,2025.2.4,None,2026-02-20 21h13.46.670987 +0100,
,7,7,0,TESTstimuli/TESTscenes/JB_2.jpg,,2,,,,,,,,,,,,,Malbow,2,1,0.3527172909816727,None,,,,,,,,,,,,,0,7,7,4,73.00254387498717,,,,,,,,,,,,,,,,,,,,,,,,,,,,,,,,,,,,,,,,,,,,,,,,,,,,,,,,,,,,,,,,,,,,,,,,,,,,,,,,,,,,,,,,,,,72.99780099999043,73.96128758299164,73.96140591599396,73.97274833297706,73.97274833297706,74.3297749159974,2,1,0.3527172909816727,None,74.33366933299112,74.3435908749816,75.3289168329793,73.00254387498717,75.37193912497605,,,,,,,,276115,001,2026-02-20_21h13.46.223,TEST_training_task,,2025.2.4,None,2026-02-20 21h13.46.670987 +0100,
,8,8,0,TESTstimuli/TESTscenes/UB_1.jpg,,4,,,,,,,,,,,,,Somar,4,1,0.3232411240169313,None,,,,,,,,,,,,,0,8,8,9,75.37193912497605,,,,,,,,,,,,,,,,,,,,,,,,,,,,,,,,,,,,,,,,,,,,,,,,,,,,,,,,,,,,,,,,,,,,,,,,,,,,,,,,,,,,,,,,,,,75.36712783298572,76.33966074997443,76.33984795797733,76.34618637498352,76.34618637498352,76.67452354097622,4,1,0.3232411240169313,None,76.67474670798401,76.68578570798854,77.67306954099331,75.37193912497605,77.77191395798582,,,,,,,,276115,001,2026-02-20_21h13.46.223,TEST_training_task,,2025.2.4,None,2026-02-20 21h13.46.670987 +0100,
,9,9,0,TESTstimuli/TESTscenes/JA_2.jpg,,1,,,,,,,,,,,,,Tulon,1,1,0.32490124899777584,None,,,,,,,,,,,,,0,9,9,1,77.77191395798582,,,,,,,,,,,,,,,,,,,,,,,,,,,,,,,,,,,,,,,,,,,,,,,,,,,,,,,,,,,,,,,,,,,,,,,,,,,,,,,,,,,,,,,,,,,77.76705054097692,78.67781512497459,78.67792245798046,78.6894164159894,78.6894164159894,79.02438837499358,1,1,0.32490124899777584,None,79.02456245798385,79.03511308299494,80.02308770798845,77.77191395798582,80.05843537498731,,,,,,,,276115,001,2026-02-20_21h13.46.223,TEST_training_task,,2025.2.4,None,2026-02-20 21h13.46.670987 +0100,
,10,10,0,TESTstimuli/TESTscenes/UB_2.jpg,,4,,,,,,,,,,,,,Somar,4,1,0.30672699998831376,None,,,,,,,,,,,,,0,10,10,10,80.05843537498731,,,,,,,,,,,,,,,,,,,,,,,,,,,,,,,,,,,,,,,,,,,,,,,,,,,,,,,,,,,,,,,,,,,,,,,,,,,,,,,,,,,,,,,,,,,80.05367662498611,81.02903095798683,81.02914025000064,81.03934583297814,81.03934583297814,81.35735283300164,4,1,0.30672699998831376,None,81.35752012499142,81.36795958297444,82.35644745797617,80.05843537498731,82.40180649998365,,,,,,,,276115,001,2026-02-20_21h13.46.223,TEST_training_task,,2025.2.4,None,2026-02-20 21h13.46.670987 +0100,
,11,11,0,TESTstimuli/TESTscenes/UA_2.jpg,,3,,,,,,,,,,,,,Negvi,3,1,0.21544999998877756,None,,,,,,,,,,,,,0,11,11,7,82.40180649998365,,,,,,,,,,,,,,,,,,,,,,,,,,,,,,,,,,,,,,,,,,,,,,,,,,,,,,,,,,,,,,,,,,,,,,,,,,,,,,,,,,,,,,,,,,,82.39699499998824,83.36123183299787,83.36135733299307,83.37268099997891,83.37268099997891,83.59118487499654,3,1,0.21544999998877756,None,83.59475595797994,83.60602804098744,84.58981445798418,82.40180649998365,84.59853216598276,,,,,,,,276115,001,2026-02-20_21h13.46.223,TEST_training_task,,2025.2.4,None,2026-02-20 21h13.46.670987 +0100,
,,,,,,,,,,,,,,,,,,,,,,,,,,,,,,,,,,,,,,,,,,,,,,,,,,,,,,,,,,,,,,,,,,,,,,,,,,,,,,,,,,,,,,,,,,,,,,,,,,,,,,,,,,,,,,,,,,,,,,,,,,,,,,,,,,,,,,,,,,,,,,,,,,84.59031216599396,84.59853216598276,84.59853216598276,86.22868299999391,space,1.6285062500101048,None,276115,001,2026-02-20_21h13.46.223,TEST_training_task,,2025.2.4,None,2026-02-20 21h13.46.670987 +0100,
