run,thisN,thisTrialN,thisRepN,scene_stimulus,scene_cat,scene_label,item_stimulus,item_cat,item_type,congruency,integrated_stimulus,key_resp_congruency.keys,key_resp_congruency.corr,key_resp_congruency.rt,key_resp_congruency.duration,runs_trial.thisRepN,runs_trial.thisTrialN,runs_trial.thisN,runs_trial.thisIndex,trials.thisRepN,trials.thisTrialN,trials.thisN,trials.thisIndex,between_run_inst.thisRepN,between_run_inst.thisTrialN,between_run_inst.thisN,between_run_inst.thisIndex,thisRow.t,notes,get_relatedness_keys.started,get_relatedness_keys.stopped,instructions_screen.started,text_instructions.started,key_welcome.started,instructions_screen.stopped,key_welcome.keys,key_welcome.rt,key_welcome.duration,instruction_keys.started,text_keys.started,key_resp_keysInst.started,instruction_keys.stopped,key_resp_keysInst.keys,key_resp_keysInst.rt,key_resp_keysInst.duration,blank2000.started,text_2.started,text_2.stopped,blank2000.stopped,get_run_stim_list.started,get_run_stim_list.stopped,integrated_scene_presentation.started,image_integrated.started,integrated_scene_presentation.stopped,congruency_response.started,text_congruency.started,key_resp_congruency.started,congruency_response.stopped,trials.key_resp_congruency.keys,trials.key_resp_congruency.corr,blank1000.started,text_8.started,blank1000.stopped,trials.key_resp_congruency.rt,trials.key_resp_congruency.duration,text_8.stopped,text_congruency.stopped,key_resp_congruency.stopped,is_last_run.started,is_last_run.stopped,between_run_pause.started,text_run_pause.started,text_relatedness_pause.started,key_resp_next_run.started,participant,session,group,delay,date,expName,expVersion,psychopyVersion,frameRate,expStart,
,,,,,,,,,,,,,,,,,,,,,,,,,,,,,,0.008962332998635247,0.009051832981640473,,,,,,,,,,,,,,,,,,,,,,,,,,,,,,,,,,,,,,,,,,,,314,001,,,2026-04-26_18h16.21.327,encodingtask,,2025.2.4,None,2026-04-26 18h16.21.576293 +0200,
,,,,,,,,,,,,,,,,,,,,,,,,,,,,,,,,0.00907891700626351,0.016453874995931983,1.0049334579962306,3.4150021669920534,space,2.1370821250020526,None,,,,,,,,,,,,,,,,,,,,,,,,,,,,,,,,,,,,,314,001,,,2026-04-26_18h16.21.327,encodingtask,,2025.2.4,None,2026-04-26 18h16.21.576293 +0200,
,,,,,,,,,,,,,,,,,,,,,,,,,,,,,,,,,,,,,,,3.4261307919805404,3.4390912499802653,3.4390912499802653,4.523263167007826,space,1.0766920419991948,None,,,,,,,,,,,,,,,,,,,,,,,,,,,,,,314,001,,,2026-04-26_18h16.21.327,encodingtask,,2025.2.4,None,2026-04-26 18h16.21.576293 +0200,
,,,,,,,,,,,,,,,,,,,,,,,,,,,,,,,,,,,,,,,,,,,,,,4.523358582984656,4.534156374982558,7.812052124994807,6.521914457989624,,,,,,,,,,,,,,,,,,,,,,,,,,314,001,,,2026-04-26_18h16.21.327,encodingtask,,2025.2.4,None,2026-04-26 18h16.21.576293 +0200,
1,0,0,0,stimuli/TESTscenes/JB_1.jpg,Jungle,Tulon,stimuli/items/jungle_animal_42.png,Jungle,animal,sc,stimuli/integrated/jungle_b_jungle_animal_42.jpg,None,0,,,0,0,0,0,0,0,0,0,,,,,7.812052124994807,,,,,,,,,,,,,,,,,,,,,,6.545228957984364,6.545293457980733,7.7998218330030795,7.812052124994807,8.555211124999914,8.555314208002528,8.563380332983797,8.563380332983797,9.555354791984428,None,0,9.555468042002758,9.568325875006849,10.555116832983913,,,,,,,,,,,,314,001,,,2026-04-26_18h16.21.327,encodingtask,,2025.2.4,None,2026-04-26 18h16.21.576293 +0200,
1,1,1,0,stimuli/TESTscenes/UB_1.jpg,Undersea,Malbow,stimuli/items/undersea_object_22.png,Undersea,object,sc,stimuli/integrated/undersea_b_undersea_object_22.jpg,q,0,0.4949329579831101,None,0,0,0,0,0,1,1,1,,,,,11.597632541990606,,,,,,,,,,,,,,,,,,,,,,,,11.584503916994436,11.597632541990606,12.545458167005563,12.545544416992925,12.554561875003856,12.554561875003856,13.056446582981152,q,0,13.05660887499107,13.068322167004226,14.055308249982772,0.4949329579831101,None,15.23273383299238,,,,,,,,,314,001,,,2026-04-26_18h16.21.327,encodingtask,,2025.2.4,None,2026-04-26 18h16.21.576293 +0200,
1,2,2,0,stimuli/TESTscenes/UA_1.jpg,Undersea,Somar,stimuli/items/undersea_object_28.png,Undersea,object,sc,stimuli/integrated/undersea_a_undersea_object_28.jpg,p,1,0.459243958001025,None,0,0,0,0,0,2,2,2,,,,,15.23273383299238,,,,,,,,,,,,,,,,,,,,,,,,15.22281062498223,15.23273383299238,16.06214066699613,16.06222862499999,16.07106079199002,16.07106079199002,16.539932832994964,p,1,16.54011454200372,16.55216229200596,17.538478500006022,0.459243958001025,None,17.57855262499652,,,,,,,,,314,001,,,2026-04-26_18h16.21.327,encodingtask,,2025.2.4,None,2026-04-26 18h16.21.576293 +0200,
1,3,3,0,stimuli/TESTscenes/UB_1.jpg,Undersea,Malbow,stimuli/items/jungle_animal_28.png,Jungle,animal,si,stimuli/integrated/jungle_b_jungle_animal_28.jpg,q,1,0.6819291249848902,None,0,0,0,0,0,3,3,3,,,,,17.57855262499652,,,,,,,,,,,,,,,,,,,,,,,,17.573292291985126,17.57855262499652,19.54556549998233,19.54564699999173,19.55331683298573,19.55331683298573,20.24017949998961,q,1,20.240400207985658,20.251890957995784,21.238799166982062,0.6819291249848902,None,22.284872291987995,,,,,,,,,314,001,,,2026-04-26_18h16.21.327,encodingtask,,2025.2.4,None,2026-04-26 18h16.21.576293 +0200,
1,4,4,0,stimuli/TESTscenes/JA_1.jpg,Jungle,Negvi,stimuli/items/jungle_object_27.png,Jungle,object,sc,stimuli/integrated/jungle_b_jungle_object_27.jpg,p,1,0.5892760409915354,None,0,0,0,0,0,4,4,4,,,,,22.284872291987995,,,,,,,,,,,,,,,,,,,,,,,,22.27717037498951,22.284872291987995,23.245424124994315,23.245501375000458,23.25487287499709,23.25487287499709,23.845763499994064,p,1,23.84590112499427,23.856799500004854,24.84453633299563,0.5892760409915354,None,25.95902387498063,,,,,,,,,314,001,,,2026-04-26_18h16.21.327,encodingtask,,2025.2.4,None,2026-04-26 18h16.21.576293 +0200,
1,5,5,0,stimuli/TESTscenes/JB_1.jpg,Jungle,Tulon,stimuli/items/jungle_object_38.png,Jungle,object,sc,stimuli/integrated/jungle_a_jungle_object_38.jpg,q,0,0.318941708013881,None,0,0,0,0,0,5,5,5,,,,,25.95902387498063,,,,,,,,,,,,,,,,,,,,,,,,25.95347858298919,25.95902387498063,26.855229916982353,26.85532258299645,26.861100374982925,26.861100374982925,27.189328999986174,q,0,27.189443874987774,27.20078799998737,28.18849470798159,0.318941708013881,None,28.22558545798529,,,,,,,,,314,001,,,2026-04-26_18h16.21.327,encodingtask,,2025.2.4,None,2026-04-26 18h16.21.576293 +0200,
1,6,6,0,stimuli/TESTscenes/UB_1.jpg,Undersea,Malbow,stimuli/items/jungle_object_5.png,Jungle,object,si,stimuli/integrated/jungle_b_jungle_object_5.jpg,q,1,0.5693594159965869,None,0,0,0,0,0,6,6,6,,,,,28.22558545798529,,,,,,,,,,,,,,,,,,,,,,,,28.220395041978918,28.22558545798529,30.194368625001516,30.194458041980397,30.204597667005146,30.204597667005146,30.778807833004976,q,1,30.77892579199397,30.79050054200343,31.77782724998542,0.5693594159965869,None,32.82394375000149,,,,,,,,,314,001,,,2026-04-26_18h16.21.327,encodingtask,,2025.2.4,None,2026-04-26 18h16.21.576293 +0200,
1,7,7,0,stimuli/TESTscenes/JB_1.jpg,Jungle,Tulon,stimuli/items/undersea_animal_34.png,Undersea,animal,si,stimuli/integrated/undersea_b_undersea_animal_34.jpg,q,1,0.4964811250101775,None,0,0,0,0,0,7,7,7,,,,,32.82394375000149,,,,,,,,,,,,,,,,,,,,,,,,32.81668937500217,32.82394375000149,33.78836666699499,33.788456749985926,33.79443887498928,33.79443887498928,34.29601733299205,q,1,34.29613241698826,34.307198666996555,35.29499908298021,0.4964811250101775,None,36.38923941698158,,,,,,,,,314,001,,,2026-04-26_18h16.21.327,encodingtask,,2025.2.4,None,2026-04-26 18h16.21.576293 +0200,
1,8,8,0,stimuli/TESTscenes/JA_1.jpg,Jungle,Negvi,stimuli/items/jungle_animal_29.png,Jungle,animal,sc,stimuli/integrated/jungle_a_jungle_animal_29.jpg,q,0,0.40400004101684317,None,0,0,0,0,0,8,8,8,,,,,36.38923941698158,,,,,,,,,,,,,,,,,,,,,,,,36.382713500002865,36.38923941698158,37.30519037498743,37.30528524998226,37.311838333000196,37.311838333000196,37.72321670799283,q,0,37.72339999998803,37.73475745800533,38.721585624996806,0.40400004101684317,None,39.820304749999195,,,,,,,,,314,001,,,2026-04-26_18h16.21.327,encodingtask,,2025.2.4,None,2026-04-26 18h16.21.576293 +0200,
1,9,9,0,stimuli/TESTscenes/UB_1.jpg,Undersea,Malbow,stimuli/items/undersea_object_35.png,Undersea,object,sc,stimuli/integrated/undersea_a_undersea_object_35.jpg,q,0,0.5145627910096664,None,0,0,0,0,0,9,9,9,,,,,39.820304749999195,,,,,,,,,,,,,,,,,,,,,,,,39.81466779200127,39.820304749999195,40.72636499998043,40.72645716698025,40.738135457999306,40.738135457999306,41.25605374999577,q,0,41.25617266699555,41.268536249990575,42.254996125004254,0.5145627910096664,None,43.38569587498205,,,,,,,,,314,001,,,2026-04-26_18h16.21.327,encodingtask,,2025.2.4,None,2026-04-26 18h16.21.576293 +0200,
1,10,10,0,stimuli/TESTscenes/JB_1.jpg,Jungle,Tulon,stimuli/items/jungle_object_13.png,Jungle,object,sc,stimuli/integrated/jungle_b_jungle_object_13.jpg,None,0,,,0,0,0,0,0,10,10,10,,,,,43.38569587498205,,,,,,,,,,,,,,,,,,,,,,,,43.380125875002705,43.38569587498205,44.26165162498364,44.26173916700645,44.271012166980654,44.271012166980654,45.25513762500486,None,0,45.25528558299993,45.26155120797921,46.244186875002924,,,47.385411791998195,45.26155120797921,45.26155120797921,,,,,,,314,001,,,2026-04-26_18h16.21.327,encodingtask,,2025.2.4,None,2026-04-26 18h16.21.576293 +0200,
1,11,11,0,stimuli/TESTscenes/JA_1.jpg,Jungle,Negvi,stimuli/items/undersea_object_18.png,Undersea,object,si,stimuli/integrated/undersea_a_undersea_object_18.jpg,None,0,,,0,0,0,0,0,11,11,11,,,,,47.385411791998195,,,,,,,,,,,,,,,,,,,,,,,,47.37964391699643,47.385411791998195,48.26177745798486,48.261862082988955,48.27132795800571,48.27132795800571,49.25504424999235,None,0,49.25518649999867,49.261338374984916,50.24429770800634,,,51.322350208007265,49.261338374984916,49.261338374984916,,,,,,,314,001,,,2026-04-26_18h16.21.327,encodingtask,,2025.2.4,None,2026-04-26 18h16.21.576293 +0200,
1,12,12,0,stimuli/TESTscenes/JB_1.jpg,Jungle,Tulon,stimuli/items/jungle_animal_45.png,Jungle,animal,sc,stimuli/integrated/jungle_b_jungle_animal_45.jpg,None,0,,,0,0,0,0,0,12,12,12,,,,,51.322350208007265,,,,,,,,,,,,,,,,,,,,,,,,51.31678708299296,51.322350208007265,52.26040358300088,52.26048199998331,52.27098054200178,52.27098054200178,53.25458350000554,None,0,53.25473012498696,53.26054304197896,54.254471958003705,,,54.295004166982835,53.26054304197896,53.26054304197896,,,,,,,314,001,,,2026-04-26_18h16.21.327,encodingtask,,2025.2.4,None,2026-04-26 18h16.21.576293 +0200,
1,13,13,0,stimuli/TESTscenes/JA_1.jpg,Jungle,Negvi,stimuli/items/undersea_animal_23.png,Undersea,animal,si,stimuli/integrated/undersea_a_undersea_animal_23.jpg,None,0,,,0,0,0,0,0,13,13,13,,,,,54.295004166982835,,,,,,,,,,,,,,,,,,,,,,,,54.28979979199357,54.295004166982835,56.26014624998788,56.26021429200773,56.270881624979666,56.270881624979666,57.2548789169814,None,0,57.255047791986726,57.26069295799243,58.24397004200728,,,59.274583582999185,57.26069295799243,57.26069295799243,,,,,,,314,001,,,2026-04-26_18h16.21.327,encodingtask,,2025.2.4,None,2026-04-26 18h16.21.576293 +0200,
1,14,14,0,stimuli/TESTscenes/UA_1.jpg,Undersea,Somar,stimuli/items/jungle_animal_16.png,Jungle,animal,si,stimuli/integrated/jungle_a_jungle_animal_16.jpg,None,0,,,0,0,0,0,0,14,14,14,,,,,59.274583582999185,,,,,,,,,,,,,,,,,,,,,,,,59.26737166699604,59.274583582999185,60.25961191699025,60.25970554200467,60.27072908298578,60.27072908298578,61.25437108299229,None,0,61.25450991699472,61.26030091699795,62.24404495800263,,,63.377638624981046,61.26030091699795,61.26030091699795,,,,,,,314,001,,,2026-04-26_18h16.21.327,encodingtask,,2025.2.4,None,2026-04-26 18h16.21.576293 +0200,
1,15,15,0,stimuli/TESTscenes/JA_1.jpg,Jungle,Negvi,stimuli/items/undersea_animal_3.png,Undersea,animal,si,stimuli/integrated/undersea_a_undersea_animal_3.jpg,None,0,,,0,0,0,0,0,15,15,15,,,,,63.377638624981046,,,,,,,,,,,,,,,,,,,,,,,,63.370406083005946,63.377638624981046,64.26113029199769,64.26120687500224,64.27106295799604,64.27106295799604,65.25450949999504,None,0,65.25463008298539,65.26071233299444,66.24386924999999,,,67.32070529198973,65.26071233299444,65.26071233299444,,,,,,,314,001,,,2026-04-26_18h16.21.327,encodingtask,,2025.2.4,None,2026-04-26 18h16.21.576293 +0200,
1,16,16,0,stimuli/TESTscenes/JB_1.jpg,Jungle,Tulon,stimuli/items/undersea_object_17.png,Undersea,object,si,stimuli/integrated/undersea_a_undersea_object_17.jpg,None,0,,,0,0,0,0,0,16,16,16,,,,,67.32070529198973,,,,,,,,,,,,,,,,,,,,,,,,67.3114956250065,67.32070529198973,68.25980224998784,68.2598788329924,68.27087162499083,68.27087162499083,69.25437024998246,None,0,69.25448437500745,69.25985724999919,70.25432599999476,,,71.261110499996,69.25985724999919,69.25985724999919,,,,,,,314,001,,,2026-04-26_18h16.21.327,encodingtask,,2025.2.4,None,2026-04-26 18h16.21.576293 +0200,
1,17,17,0,stimuli/TESTscenes/JA_1.jpg,Jungle,Negvi,stimuli/items/jungle_animal_21.png,Jungle,animal,sc,stimuli/integrated/jungle_a_jungle_animal_21.jpg,None,0,,,0,0,0,0,0,17,17,17,,,,,71.261110499996,,,,,,,,,,,,,,,,,,,,,,,,71.25569241700578,71.261110499996,72.26039141698857,72.26047945799655,72.27094620798016,72.27094620798016,73.25448870798573,None,0,73.25460387498606,73.26031508299639,74.2440354579885,,,75.32134179200511,73.26031508299639,73.26031508299639,,,,,,,314,001,,,2026-04-26_18h16.21.327,encodingtask,,2025.2.4,None,2026-04-26 18h16.21.576293 +0200,
1,18,18,0,stimuli/TESTscenes/UB_1.jpg,Undersea,Malbow,stimuli/items/jungle_object_18.png,Jungle,object,si,stimuli/integrated/jungle_a_jungle_object_18.jpg,None,0,,,0,0,0,0,0,18,18,18,,,,,75.32134179200511,,,,,,,,,,,,,,,,,,,,,,,,75.31512574999942,75.32134179200511,76.25922549999086,76.25931929200306,76.27050195800257,76.27050195800257,77.2545403749973,None,0,77.25463991699507,77.25997929199366,78.24425012498978,,,79.26774191699224,77.25997929199366,77.25997929199366,,,,,,,314,001,,,2026-04-26_18h16.21.327,encodingtask,,2025.2.4,None,2026-04-26 18h16.21.576293 +0200,
1,19,19,0,stimuli/TESTscenes/JA_1.jpg,Jungle,Negvi,stimuli/items/undersea_animal_14.png,Undersea,animal,si,stimuli/integrated/undersea_b_undersea_animal_14.jpg,None,0,,,0,0,0,0,0,19,19,19,,,,,79.26774191699224,,,,,,,,,,,,,,,,,,,,,,,,79.26240224999492,79.26774191699224,80.25986341698444,80.25996591697913,80.27067033300409,80.27067033300409,81.25479916698532,None,0,81.25487279199297,81.2601158329926,82.24373720798758,,,83.3047486669966,81.2601158329926,81.2601158329926,,,,,,,314,001,,,2026-04-26_18h16.21.327,encodingtask,,2025.2.4,None,2026-04-26 18h16.21.576293 +0200,
1,20,20,0,stimuli/TESTscenes/UB_1.jpg,Undersea,Malbow,stimuli/items/undersea_object_33.png,Undersea,object,sc,stimuli/integrated/undersea_a_undersea_object_33.jpg,None,0,,,0,0,0,0,0,20,20,20,,,,,83.3047486669966,,,,,,,,,,,,,,,,,,,,,,,,83.29901483299909,83.3047486669966,84.26024687499739,84.26033874999848,84.27046762499958,84.27046762499958,85.25450995800202,None,0,85.25469112498104,85.26140804198803,86.25433166700532,,,86.29187625000486,85.26140804198803,85.26140804198803,,,,,,,314,001,,,2026-04-26_18h16.21.327,encodingtask,,2025.2.4,None,2026-04-26 18h16.21.576293 +0200,
1,21,21,0,stimuli/TESTscenes/JA_1.jpg,Jungle,Negvi,stimuli/items/undersea_object_24.png,Undersea,object,si,stimuli/integrated/undersea_a_undersea_object_24.jpg,None,0,,,0,0,0,0,0,21,21,21,,,,,86.29187625000486,,,,,,,,,,,,,,,,,,,,,,,,86.2866592920036,86.29187625000486,88.2591041669948,88.25917558299261,88.27042729198001,88.27042729198001,89.25425679198815,None,0,89.25433399999747,89.25883037497988,90.24164216700592,,,91.28771441700519,89.25883037497988,89.25883037497988,,,,,,,314,001,,,2026-04-26_18h16.21.327,encodingtask,,2025.2.4,None,2026-04-26 18h16.21.576293 +0200,
1,22,22,0,stimuli/TESTscenes/UA_1.jpg,Undersea,Somar,stimuli/items/undersea_object_1.png,Undersea,object,sc,stimuli/integrated/undersea_a_undersea_object_1.jpg,None,0,,,0,0,0,0,0,22,22,22,,,,,91.28771441700519,,,,,,,,,,,,,,,,,,,,,,,,91.2822560829809,91.28771441700519,92.26028208300704,92.26037129198085,92.27084945800016,92.27084945800016,93.25439491699217,None,0,93.2545442499977,93.26007699998445,94.24360262500704,,,95.39256695800577,93.26007699998445,93.26007699998445,,,,,,,314,001,,,2026-04-26_18h16.21.327,encodingtask,,2025.2.4,None,2026-04-26 18h16.21.576293 +0200,
1,23,23,0,stimuli/TESTscenes/JA_1.jpg,Jungle,Negvi,stimuli/items/jungle_object_25.png,Jungle,object,sc,stimuli/integrated/jungle_b_jungle_object_25.jpg,None,0,,,0,0,0,0,0,23,23,23,,,,,95.39256695800577,,,,,,,,,,,,,,,,,,,,,,,,95.38649462498142,95.39256695800577,96.26002020799206,96.26011229198775,96.27066374997958,96.27066374997958,97.25477299999329,None,0,97.2548755829921,97.26037441700464,98.25445083298837,,,99.38678616698598,97.26037441700464,97.26037441700464,,,,,,,314,001,,,2026-04-26_18h16.21.327,encodingtask,,2025.2.4,None,2026-04-26 18h16.21.576293 +0200,
1,24,24,0,stimuli/TESTscenes/UA_1.jpg,Undersea,Somar,stimuli/items/jungle_animal_14.png,Jungle,animal,si,stimuli/integrated/jungle_a_jungle_animal_14.jpg,None,0,,,0,0,0,0,0,24,24,24,,,,,99.38678616698598,,,,,,,,,,,,,,,,,,,,,,,,99.38124016698566,99.38678616698598,100.2600384579855,100.26011820798158,100.27035124998656,100.27035124998656,101.25432350000483,None,0,101.25451041699853,101.26049349998357,102.24360049999086,,,103.32080570800463,101.26049349998357,101.26049349998357,,,,,,,314,001,,,2026-04-26_18h16.21.327,encodingtask,,2025.2.4,None,2026-04-26 18h16.21.576293 +0200,
1,25,25,0,stimuli/TESTscenes/JB_1.jpg,Jungle,Tulon,stimuli/items/jungle_object_8.png,Jungle,object,sc,stimuli/integrated/jungle_b_jungle_object_8.jpg,None,0,,,0,0,0,0,0,25,25,25,,,,,103.32080570800463,,,,,,,,,,,,,,,,,,,,,,,,103.31531083298614,103.32080570800463,104.25940966699272,104.25949995798874,104.27049274998717,104.27049274998717,105.254235875007,None,0,105.25441470800433,105.26025904199923,106.24299604198313,,,107.50293158300337,105.26025904199923,105.26025904199923,,,,,,,314,001,,,2026-04-26_18h16.21.327,encodingtask,,2025.2.4,None,2026-04-26 18h16.21.576293 +0200,
1,26,26,0,stimuli/TESTscenes/UA_1.jpg,Undersea,Somar,stimuli/items/jungle_object_7.png,Jungle,object,si,stimuli/integrated/jungle_b_jungle_object_7.jpg,None,0,,,0,0,0,0,0,26,26,26,,,,,107.50293158300337,,,,,,,,,,,,,,,,,,,,,,,,107.48656470800051,107.50293158300337,108.25995212499402,108.26002883299952,108.2703233329812,108.2703233329812,109.25415170798078,None,0,109.25428774999455,109.25977579198661,110.24405116698472,,,111.39667291700607,109.25977579198661,109.25977579198661,,,,,,,314,001,,,2026-04-26_18h16.21.327,encodingtask,,2025.2.4,None,2026-04-26 18h16.21.576293 +0200,
1,27,27,0,stimuli/TESTscenes/JA_1.jpg,Jungle,Negvi,stimuli/items/jungle_object_15.png,Jungle,object,sc,stimuli/integrated/jungle_a_jungle_object_15.jpg,None,0,,,0,0,0,0,0,27,27,27,,,,,111.39667291700607,,,,,,,,,,,,,,,,,,,,,,,,111.38690700000734,111.39667291700607,112.25910666698474,112.25918891699985,112.27028979198076,112.27028979198076,113.25418058299692,None,0,113.25433895798051,113.2606492920022,114.25401924998732,,,115.30094137499691,113.2606492920022,113.2606492920022,,,,,,,314,001,,,2026-04-26_18h16.21.327,encodingtask,,2025.2.4,None,2026-04-26 18h16.21.576293 +0200,
1,28,28,0,stimuli/TESTscenes/UA_1.jpg,Undersea,Somar,stimuli/items/jungle_animal_41.png,Jungle,animal,si,stimuli/integrated/jungle_a_jungle_animal_41.jpg,None,0,,,0,0,0,0,0,28,28,28,,,,,115.30094137499691,,,,,,,,,,,,,,,,,,,,,,,,115.29232145799324,115.30094137499691,116.26022741699126,116.2603163330059,116.27027725000517,116.27027725000517,117.25392950000241,None,0,117.25412845800747,117.26068045798456,118.24355799998739,,,119.35599058298976,117.26068045798456,117.26068045798456,,,,,,,314,001,,,2026-04-26_18h16.21.327,encodingtask,,2025.2.4,None,2026-04-26 18h16.21.576293 +0200,
1,29,29,0,stimuli/TESTscenes/UB_1.jpg,Undersea,Malbow,stimuli/items/undersea_object_37.png,Undersea,object,sc,stimuli/integrated/undersea_b_undersea_object_37.jpg,None,0,,,0,0,0,0,0,29,29,29,,,,,119.35599058298976,,,,,,,,,,,,,,,,,,,,,,,,119.34585741700721,119.35599058298976,120.25970458300435,120.25977874998352,120.27040283300448,120.27040283300448,121.25387266700272,None,0,121.25401537498692,121.25975470800768,122.24355754198041,,,123.20452620799188,121.25975470800768,121.25975470800768,,,,,,,314,001,,,2026-04-26_18h16.21.327,encodingtask,,2025.2.4,None,2026-04-26 18h16.21.576293 +0200,
1,30,30,0,stimuli/TESTscenes/JB_1.jpg,Jungle,Tulon,stimuli/items/jungle_animal_13.png,Jungle,animal,sc,stimuli/integrated/jungle_a_jungle_animal_13.jpg,None,0,,,0,0,0,0,0,30,30,30,,,,,123.20452620799188,,,,,,,,,,,,,,,,,,,,,,,,123.19900537500507,123.20452620799188,124.26000316700083,124.26008987499517,124.27106866700342,124.27106866700342,125.25384329198278,None,0,125.25396000000183,125.25942691700766,126.24243208300322,,,127.3793857919809,125.25942691700766,125.25942691700766,,,,,,,314,001,,,2026-04-26_18h16.21.327,encodingtask,,2025.2.4,None,2026-04-26 18h16.21.576293 +0200,
1,31,31,0,stimuli/TESTscenes/UB_1.jpg,Undersea,Malbow,stimuli/items/jungle_animal_25.png,Jungle,animal,si,stimuli/integrated/jungle_a_jungle_animal_25.jpg,None,0,,,0,0,0,0,0,31,31,31,,,,,127.3793857919809,,,,,,,,,,,,,,,,,,,,,,,,127.37383333299658,127.3793857919809,128.25971070799278,128.25978704198496,128.27015562498127,128.27015562498127,129.25291824998567,None,0,129.25304774998222,129.25797708300524,130.24167266700533,,,131.3062790829863,129.25797708300524,129.25797708300524,,,,,,,314,001,,,2026-04-26_18h16.21.327,encodingtask,,2025.2.4,None,2026-04-26 18h16.21.576293 +0200,
1,32,32,0,stimuli/TESTscenes/UA_1.jpg,Undersea,Somar,stimuli/items/jungle_object_3.png,Jungle,object,si,stimuli/integrated/jungle_b_jungle_object_3.jpg,None,0,,,0,0,0,0,0,32,32,32,,,,,131.3062790829863,,,,,,,,,,,,,,,,,,,,,,,,131.30102254200028,131.3062790829863,132.25960762499017,132.25969512498705,132.2706440000038,132.2706440000038,133.25402579200454,None,0,133.25425954198,133.26026345798164,134.2538844999799,,,134.29605187498964,133.26026345798164,133.26026345798164,,,,,,,314,001,,,2026-04-26_18h16.21.327,encodingtask,,2025.2.4,None,2026-04-26 18h16.21.576293 +0200,
1,33,33,0,stimuli/TESTscenes/JB_1.jpg,Jungle,Tulon,stimuli/items/jungle_object_4.png,Jungle,object,sc,stimuli/integrated/jungle_a_jungle_object_4.jpg,None,0,,,0,0,0,0,0,33,33,33,,,,,134.29605187498964,,,,,,,,,,,,,,,,,,,,,,,,134.29071933298837,134.29605187498964,136.2589414579852,136.25900349998847,136.27037029198254,136.27037029198254,137.25398516698624,None,0,137.25419170799432,137.26022541700513,138.25395154199214,,,139.34503349999432,137.26022541700513,137.26022541700513,,,,,,,314,001,,,2026-04-26_18h16.21.327,encodingtask,,2025.2.4,None,2026-04-26 18h16.21.576293 +0200,
1,34,34,0,stimuli/TESTscenes/JA_1.jpg,Jungle,Negvi,stimuli/items/jungle_animal_36.png,Jungle,animal,sc,stimuli/integrated/jungle_a_jungle_animal_36.jpg,None,0,,,0,0,0,0,0,34,34,34,,,,,139.34503349999432,,,,,,,,,,,,,,,,,,,,,,,,139.33974949998083,139.34503349999432,140.2607429579948,140.26082912500715,140.27074499998707,140.27074499998707,141.25402583298273,None,0,141.25415533297928,141.26013887498993,142.25406629199279,,,143.3820393329952,141.26013887498993,141.26013887498993,,,,,,,314,001,,,2026-04-26_18h16.21.327,encodingtask,,2025.2.4,None,2026-04-26 18h16.21.576293 +0200,
1,35,35,0,stimuli/TESTscenes/UB_1.jpg,Undersea,Malbow,stimuli/items/jungle_object_1.png,Jungle,object,si,stimuli/integrated/jungle_a_jungle_object_1.jpg,None,0,,,0,0,0,0,0,35,35,35,,,,,143.3820393329952,,,,,,,,,,,,,,,,,,,,,,,,143.37646554198,143.3820393329952,144.25851537499693,144.25859133299673,144.27014229199267,144.27014229199267,145.253934791981,None,0,145.25403062498663,145.25948812498245,146.25396416700096,,,147.31486337498063,145.25948812498245,145.25948812498245,,,,,,,314,001,,,2026-04-26_18h16.21.327,encodingtask,,2025.2.4,None,2026-04-26 18h16.21.576293 +0200,
1,36,36,0,stimuli/TESTscenes/JA_1.jpg,Jungle,Negvi,stimuli/items/jungle_animal_18.png,Jungle,animal,sc,stimuli/integrated/jungle_a_jungle_animal_18.jpg,None,0,,,0,0,0,0,0,36,36,36,,,,,147.31486337498063,,,,,,,,,,,,,,,,,,,,,,,,147.30940712499432,147.31486337498063,148.25992970800144,148.2600118329865,148.27027245800127,148.27027245800127,149.25398154198774,None,0,149.2541645419842,149.2601961249893,150.24364237498958,,,151.49793499999214,149.2601961249893,149.2601961249893,,,,,,,314,001,,,2026-04-26_18h16.21.327,encodingtask,,2025.2.4,None,2026-04-26 18h16.21.576293 +0200,
1,37,37,0,stimuli/TESTscenes/UB_1.jpg,Undersea,Malbow,stimuli/items/undersea_animal_10.png,Undersea,animal,sc,stimuli/integrated/undersea_b_undersea_animal_10.jpg,None,0,,,0,0,0,0,0,37,37,37,,,,,151.49793499999214,,,,,,,,,,,,,,,,,,,,,,,,151.48602120799478,151.49793499999214,152.25908745799097,152.25916354198125,152.27001620800002,152.27001620800002,153.25389820800046,None,0,153.25413537499844,153.26058129197918,154.2432854170038,,,155.2683602499892,153.26058129197918,153.26058129197918,,,,,,,314,001,,,2026-04-26_18h16.21.327,encodingtask,,2025.2.4,None,2026-04-26 18h16.21.576293 +0200,
1,38,38,0,stimuli/TESTscenes/JA_1.jpg,Jungle,Negvi,stimuli/items/jungle_animal_27.png,Jungle,animal,sc,stimuli/integrated/jungle_b_jungle_animal_27.jpg,None,0,,,0,0,0,0,0,38,38,38,,,,,155.2683602499892,,,,,,,,,,,,,,,,,,,,,,,,155.26290949998656,155.2683602499892,156.2598052920075,156.25993116700556,156.27031591700506,156.27031591700506,157.25413520800066,None,0,157.25430579198292,157.26020020799479,158.24342995800544,,,159.32622637500754,157.26020020799479,157.26020020799479,,,,,,,314,001,,,2026-04-26_18h16.21.327,encodingtask,,2025.2.4,None,2026-04-26 18h16.21.576293 +0200,
1,39,39,0,stimuli/TESTscenes/UA_1.jpg,Undersea,Somar,stimuli/items/jungle_object_19.png,Jungle,object,si,stimuli/integrated/jungle_a_jungle_object_19.jpg,None,0,,,0,0,0,0,0,39,39,39,,,,,159.32622637500754,,,,,,,,,,,,,,,,,,,,,,,,159.31682300000102,159.32622637500754,160.2599752919923,160.2600541249849,160.26996908299043,160.26996908299043,161.25385104198358,None,0,161.25396316699334,161.25991979200626,162.24332379200496,,,162.2810959169874,161.25991979200626,161.25991979200626,,,,,,,314,001,,,2026-04-26_18h16.21.327,encodingtask,,2025.2.4,None,2026-04-26 18h16.21.576293 +0200,
1,40,40,0,stimuli/TESTscenes/JB_1.jpg,Jungle,Tulon,stimuli/items/undersea_object_2.png,Undersea,object,si,stimuli/integrated/undersea_b_undersea_object_2.jpg,None,0,,,0,0,0,0,0,40,40,40,,,,,162.2810959169874,,,,,,,,,,,,,,,,,,,,,,,,162.2757480829896,162.2810959169874,164.25930820798385,164.25937833299395,164.27009879198158,164.27009879198158,165.25381408300018,None,0,165.25401124998461,165.26021024998045,166.25367908299086,,,166.29171754198615,165.26021024998045,165.26021024998045,,,,,,,314,001,,,2026-04-26_18h16.21.327,encodingtask,,2025.2.4,None,2026-04-26 18h16.21.576293 +0200,
1,41,41,0,stimuli/TESTscenes/UA_1.jpg,Undersea,Somar,stimuli/items/undersea_object_15.png,Undersea,object,sc,stimuli/integrated/undersea_b_undersea_object_15.jpg,None,0,,,0,0,0,0,0,41,41,41,,,,,166.29171754198615,,,,,,,,,,,,,,,,,,,,,,,,166.2864445419982,166.29171754198615,168.2592347500031,168.25930404200335,168.26982716697967,168.26982716697967,169.2537584999809,None,0,169.2539278329932,169.25948758298182,170.24220658300328,,,171.2995238750009,169.25948758298182,169.25948758298182,,,,,,,314,001,,,2026-04-26_18h16.21.327,encodingtask,,2025.2.4,None,2026-04-26 18h16.21.576293 +0200,
1,42,42,0,stimuli/TESTscenes/JA_1.jpg,Jungle,Negvi,stimuli/items/jungle_object_24.png,Jungle,object,sc,stimuli/integrated/jungle_b_jungle_object_24.jpg,None,0,,,0,0,0,0,0,42,42,42,,,,,171.2995238750009,,,,,,,,,,,,,,,,,,,,,,,,171.29414300000644,171.2995238750009,172.25953920799657,172.25962416699622,172.26985366700683,172.26985366700683,173.25366962500266,None,0,173.2538535829808,173.25966445798986,174.25367108298815,,,174.29152666698792,173.25966445798986,173.25966445798986,,,,,,,314,001,,,2026-04-26_18h16.21.327,encodingtask,,2025.2.4,None,2026-04-26 18h16.21.576293 +0200,
1,43,43,0,stimuli/TESTscenes/JB_1.jpg,Jungle,Tulon,stimuli/items/undersea_animal_22.png,Undersea,animal,si,stimuli/integrated/undersea_b_undersea_animal_22.jpg,None,0,,,0,0,0,0,0,43,43,43,,,,,174.29152666698792,,,,,,,,,,,,,,,,,,,,,,,,174.28633154198178,174.29152666698792,176.25863399999798,176.258711707982,176.26980529198772,176.26980529198772,177.25388241698965,None,0,177.25407075000112,177.26016404200345,178.25355862500146,,,179.33853333297884,177.26016404200345,177.26016404200345,,,,,,,314,001,,,2026-04-26_18h16.21.327,encodingtask,,2025.2.4,None,2026-04-26 18h16.21.576293 +0200,
1,44,44,0,stimuli/TESTscenes/JA_1.jpg,Jungle,Negvi,stimuli/items/undersea_object_3.png,Undersea,object,si,stimuli/integrated/undersea_a_undersea_object_3.jpg,None,0,,,0,0,0,0,0,44,44,44,,,,,179.33853333297884,,,,,,,,,,,,,,,,,,,,,,,,179.33254762500292,179.33853333297884,180.2590086249984,180.25908570800675,180.26986587498686,180.26986587498686,181.25337866699556,None,0,181.25350933297887,181.25873995799338,182.24314587499248,,,183.25652850000188,181.25873995799338,181.25873995799338,,,,,,,314,001,,,2026-04-26_18h16.21.327,encodingtask,,2025.2.4,None,2026-04-26 18h16.21.576293 +0200,
1,45,45,0,stimuli/TESTscenes/UB_1.jpg,Undersea,Malbow,stimuli/items/undersea_object_31.png,Undersea,object,sc,stimuli/integrated/undersea_b_undersea_object_31.jpg,None,0,,,0,0,0,0,0,45,45,45,,,,,183.25652850000188,,,,,,,,,,,,,,,,,,,,,,,,183.25100637497962,183.25652850000188,184.2591779170034,184.2592686249991,184.27009316699696,184.27009316699696,185.25339783300296,None,0,185.2535159169929,185.2592125829833,186.24283287499566,,,186.280113832996,185.2592125829833,185.2592125829833,,,,,,,314,001,,,2026-04-26_18h16.21.327,encodingtask,,2025.2.4,None,2026-04-26 18h16.21.576293 +0200,
1,46,46,0,stimuli/TESTscenes/JB_1.jpg,Jungle,Tulon,stimuli/items/undersea_animal_17.png,Undersea,animal,si,stimuli/integrated/undersea_b_undersea_animal_17.jpg,None,0,,,0,0,0,0,0,46,46,46,,,,,186.280113832996,,,,,,,,,,,,,,,,,,,,,,,,186.27474737499142,186.280113832996,188.2589326669986,188.25901016700664,188.26991716699558,188.26991716699558,189.25362195799244,None,0,189.25379237500601,189.25942362498608,190.242718124995,,,191.34636462500202,189.25942362498608,189.25942362498608,,,,,,,314,001,,,2026-04-26_18h16.21.327,encodingtask,,2025.2.4,None,2026-04-26 18h16.21.576293 +0200,
1,47,47,0,stimuli/TESTscenes/UB_1.jpg,Undersea,Malbow,stimuli/items/jungle_animal_4.png,Jungle,animal,si,stimuli/integrated/jungle_a_jungle_animal_4.jpg,None,0,,,0,0,0,0,0,47,47,47,,,,,191.34636462500202,,,,,,,,,,,,,,,,,,,,,,,,191.3409769999853,191.34636462500202,192.2580392920063,192.2581269579823,192.26974470799905,192.26974470799905,193.25329287498607,None,0,193.25340162499924,193.25870737500372,194.2426445419842,,,195.3522735000006,193.25870737500372,193.25870737500372,,,,,,,314,001,,,2026-04-26_18h16.21.327,encodingtask,,2025.2.4,None,2026-04-26 18h16.21.576293 +0200,
1,48,48,0,stimuli/TESTscenes/JA_1.jpg,Jungle,Negvi,stimuli/items/jungle_object_2.png,Jungle,object,sc,stimuli/integrated/jungle_a_jungle_object_2.jpg,None,0,,,0,0,0,0,0,48,48,48,,,,,195.3522735000006,,,,,,,,,,,,,,,,,,,,,,,,195.34674874998746,195.3522735000006,196.25878795798053,196.25887654200778,196.2700527079869,196.2700527079869,197.25355341698742,None,0,197.2536735419999,197.2592294169881,198.24300695798593,,,199.39244574998156,197.2592294169881,197.2592294169881,,,,,,,314,001,,,2026-04-26_18h16.21.327,encodingtask,,2025.2.4,None,2026-04-26 18h16.21.576293 +0200,
1,49,49,0,stimuli/TESTscenes/JB_1.jpg,Jungle,Tulon,stimuli/items/jungle_object_32.png,Jungle,object,sc,stimuli/integrated/jungle_a_jungle_object_32.jpg,None,0,,,0,0,0,0,0,49,49,49,,,,,199.39244574998156,,,,,,,,,,,,,,,,,,,,,,,,199.38647745799972,199.39244574998156,200.25933554198127,200.2594273329887,200.26991666699178,200.26991666699178,201.25341204198776,None,0,201.25355258298805,201.25904920799076,202.24278391699772,,,203.62899295799434,201.25904920799076,201.25904920799076,,,,,,,314,001,,,2026-04-26_18h16.21.327,encodingtask,,2025.2.4,None,2026-04-26 18h16.21.576293 +0200,
1,50,50,0,stimuli/TESTscenes/UA_1.jpg,Undersea,Somar,stimuli/items/undersea_animal_2.png,Undersea,animal,sc,stimuli/integrated/undersea_b_undersea_animal_2.jpg,None,0,,,0,0,0,0,0,50,50,50,,,,,203.62899295799434,,,,,,,,,,,,,,,,,,,,,,,,203.62312029200257,203.62899295799434,204.2592144579976,204.25928837500396,204.26973483298207,204.26973483298207,205.25353341698064,None,0,205.2537340419949,205.259787374991,206.25354316699668,,,207.39136108299135,205.259787374991,205.259787374991,,,,,,,314,001,,,2026-04-26_18h16.21.327,encodingtask,,2025.2.4,None,2026-04-26 18h16.21.576293 +0200,
1,51,51,0,stimuli/TESTscenes/UB_1.jpg,Undersea,Malbow,stimuli/items/undersea_animal_25.png,Undersea,animal,sc,stimuli/integrated/undersea_b_undersea_animal_25.jpg,None,0,,,0,0,0,0,0,51,51,51,,,,,207.39136108299135,,,,,,,,,,,,,,,,,,,,,,,,207.3853972920042,207.39136108299135,208.25905933298054,208.25914408298559,208.26979175000452,208.26979175000452,209.25330662500346,None,0,209.2535265829938,209.25973962500575,210.2424475000007,,,210.27897458299412,209.25973962500575,209.25973962500575,,,,,,,314,001,,,2026-04-26_18h16.21.327,encodingtask,,2025.2.4,None,2026-04-26 18h16.21.576293 +0200,
1,52,52,0,stimuli/TESTscenes/UA_1.jpg,Undersea,Somar,stimuli/items/undersea_object_36.png,Undersea,object,sc,stimuli/integrated/undersea_b_undersea_object_36.jpg,None,0,,,0,0,0,0,0,52,52,52,,,,,210.27897458299412,,,,,,,,,,,,,,,,,,,,,,,,210.2737187499879,210.27897458299412,212.25891545799095,212.25898287500604,212.26984475000063,212.26984475000063,213.2531340419955,None,0,213.25327812499017,213.25875237499713,214.2421231670014,,,215.26601754198782,213.25875237499713,213.25875237499713,,,,,,,314,001,,,2026-04-26_18h16.21.327,encodingtask,,2025.2.4,None,2026-04-26 18h16.21.576293 +0200,
1,53,53,0,stimuli/TESTscenes/JA_1.jpg,Jungle,Negvi,stimuli/items/undersea_object_20.png,Undersea,object,si,stimuli/integrated/undersea_a_undersea_object_20.jpg,None,0,,,0,0,0,0,0,53,53,53,,,,,215.26601754198782,,,,,,,,,,,,,,,,,,,,,,,,215.26044004198047,215.26601754198782,216.25912066700403,216.25922112498665,216.26973429200007,216.26973429200007,217.25383987498935,None,0,217.25405941699864,217.2604057919816,218.2533967079944,,,219.38811654198798,217.2604057919816,217.2604057919816,,,,,,,314,001,,,2026-04-26_18h16.21.327,encodingtask,,2025.2.4,None,2026-04-26 18h16.21.576293 +0200,
1,54,54,0,stimuli/TESTscenes/UA_1.jpg,Undersea,Somar,stimuli/items/undersea_animal_5.png,Undersea,animal,sc,stimuli/integrated/undersea_b_undersea_animal_5.jpg,None,0,,,0,0,0,0,0,54,54,54,,,,,219.38811654198798,,,,,,,,,,,,,,,,,,,,,,,,219.38295624998864,219.38811654198798,220.25932870799443,220.2594067500031,220.2695887919981,220.2695887919981,221.25326970798778,None,0,221.25348600000143,221.2589107079839,222.24163591698743,,,222.27836799999932,221.2589107079839,221.2589107079839,,,,,,,314,001,,,2026-04-26_18h16.21.327,encodingtask,,2025.2.4,None,2026-04-26 18h16.21.576293 +0200,
1,55,55,0,stimuli/TESTscenes/JA_1.jpg,Jungle,Negvi,stimuli/items/undersea_animal_28.png,Undersea,animal,si,stimuli/integrated/undersea_a_undersea_animal_28.jpg,None,0,,,0,0,0,0,0,55,55,55,,,,,222.27836799999932,,,,,,,,,,,,,,,,,,,,,,,,222.27320687499014,222.27836799999932,224.25820166699123,224.25828300000285,224.26948112499667,224.26948112499667,225.25318637499004,None,0,225.2533715000027,225.25966645800509,226.24271370799397,,,227.38873895799043,225.25966645800509,225.25966645800509,,,,,,,314,001,,,2026-04-26_18h16.21.327,encodingtask,,2025.2.4,None,2026-04-26 18h16.21.576293 +0200,
1,56,56,0,stimuli/TESTscenes/UA_1.jpg,Undersea,Somar,stimuli/items/jungle_animal_1.png,Jungle,animal,si,stimuli/integrated/jungle_a_jungle_animal_1.jpg,None,0,,,0,0,0,0,0,56,56,56,,,,,227.38873895799043,,,,,,,,,,,,,,,,,,,,,,,,227.3833614999894,227.38873895799043,228.25890183300362,228.25898579199566,228.26962799998,228.26962799998,229.2533434999932,None,0,229.25352420800482,229.25957937497878,230.25344991698512,,,230.2921658330015,229.25957937497878,229.25957937497878,,,,,,,314,001,,,2026-04-26_18h16.21.327,encodingtask,,2025.2.4,None,2026-04-26 18h16.21.576293 +0200,
1,57,57,0,stimuli/TESTscenes/UB_1.jpg,Undersea,Malbow,stimuli/items/jungle_object_39.png,Jungle,object,si,stimuli/integrated/jungle_b_jungle_object_39.jpg,None,0,,,0,0,0,0,0,57,57,57,,,,,230.2921658330015,,,,,,,,,,,,,,,,,,,,,,,,230.2869744579948,230.2921658330015,232.25886387500213,232.25893162499415,232.26940583297983,232.26940583297983,233.25297674999456,None,0,233.25309433299117,233.25869679200696,234.24286812500213,,,234.27950066700578,233.25869679200696,233.25869679200696,,,,,,,314,001,,,2026-04-26_18h16.21.327,encodingtask,,2025.2.4,None,2026-04-26 18h16.21.576293 +0200,
1,58,58,0,stimuli/TESTscenes/UA_1.jpg,Undersea,Somar,stimuli/items/jungle_animal_17.png,Jungle,animal,si,stimuli/integrated/jungle_b_jungle_animal_17.jpg,None,0,,,0,0,0,0,0,58,58,58,,,,,234.27950066700578,,,,,,,,,,,,,,,,,,,,,,,,234.27433637500508,234.27950066700578,236.2580995830067,236.2581769170065,236.2693501249887,236.2693501249887,237.2529444170068,None,0,237.25305729199317,237.2580477919837,238.24128529199515,,,238.27824204199715,237.2580477919837,237.2580477919837,,,,,,,314,001,,,2026-04-26_18h16.21.327,encodingtask,,2025.2.4,None,2026-04-26 18h16.21.576293 +0200,
1,59,59,0,stimuli/TESTscenes/JB_1.jpg,Jungle,Tulon,stimuli/items/jungle_animal_3.png,Jungle,animal,sc,stimuli/integrated/jungle_b_jungle_animal_3.jpg,None,0,,,0,0,0,0,0,59,59,59,,,,,238.27824204199715,,,,,,,,,,,,,,,,,,,,,,,,238.27298725000583,238.27824204199715,240.25802562499302,240.25810329199885,240.26942404199508,240.26942404199508,241.25312158299494,None,0,241.25327449999168,241.2590913749882,242.25305504200514,,,243.2455109169823,241.2590913749882,241.2590913749882,,,,,,,314,001,,,2026-04-26_18h16.21.327,encodingtask,,2025.2.4,None,2026-04-26 18h16.21.576293 +0200,
1,60,60,0,stimuli/TESTscenes/UB_1.jpg,Undersea,Malbow,stimuli/items/undersea_animal_4.png,Undersea,animal,sc,stimuli/integrated/undersea_b_undersea_animal_4.jpg,None,0,,,0,0,0,0,0,60,60,60,,,,,243.2455109169823,,,,,,,,,,,,,,,,,,,,,,,,243.2399743749993,243.2455109169823,244.2587269579817,244.2588048329926,244.26932824999676,244.26932824999676,245.25294891698286,None,0,245.25306329198065,245.2583239999949,246.24254995799856,,,247.20927416699124,245.2583239999949,245.2583239999949,,,,,,,314,001,,,2026-04-26_18h16.21.327,encodingtask,,2025.2.4,None,2026-04-26 18h16.21.576293 +0200,
1,61,61,0,stimuli/TESTscenes/JB_1.jpg,Jungle,Tulon,stimuli/items/jungle_animal_19.png,Jungle,animal,sc,stimuli/integrated/jungle_a_jungle_animal_19.jpg,None,0,,,0,0,0,0,0,61,61,61,,,,,247.20927416699124,,,,,,,,,,,,,,,,,,,,,,,,247.2036988750042,247.20927416699124,248.25868237498798,248.25875966699095,248.2692681250046,248.2692681250046,249.2529311249964,None,0,249.25315158299054,249.25940099998843,250.24254720800673,,,251.39133862499148,249.25940099998843,249.25940099998843,,,,,,,314,001,,,2026-04-26_18h16.21.327,encodingtask,,2025.2.4,None,2026-04-26 18h16.21.576293 +0200,
1,62,62,0,stimuli/TESTscenes/UB_1.jpg,Undersea,Malbow,stimuli/items/jungle_object_21.png,Jungle,object,si,stimuli/integrated/jungle_a_jungle_object_21.jpg,None,0,,,0,0,0,0,0,62,62,62,,,,,251.39133862499148,,,,,,,,,,,,,,,,,,,,,,,,251.3852314579999,251.39133862499148,252.2581987500016,252.25827600000775,252.26824283300084,252.26824283300084,253.2531345830066,None,0,253.2532984999998,253.25926545800758,254.25333587499335,,,254.2927576249931,253.25926545800758,253.25926545800758,,,,,,,314,001,,,2026-04-26_18h16.21.327,encodingtask,,2025.2.4,None,2026-04-26 18h16.21.576293 +0200,
1,63,63,0,stimuli/TESTscenes/JB_1.jpg,Jungle,Tulon,stimuli/items/undersea_object_4.png,Undersea,object,si,stimuli/integrated/undersea_b_undersea_object_4.jpg,None,0,,,0,0,0,0,0,63,63,63,,,,,254.2927576249931,,,,,,,,,,,,,,,,,,,,,,,,254.28707950000535,254.2927576249931,256.2588773749885,256.2589491670078,256.2694985829876,256.2694985829876,257.25312591699185,None,0,257.25324154199916,257.25936062500114,258.24252429199987,,,259.35680170799606,257.25936062500114,257.25936062500114,,,,,,,314,001,,,2026-04-26_18h16.21.327,encodingtask,,2025.2.4,None,2026-04-26 18h16.21.576293 +0200,
1,64,64,0,stimuli/TESTscenes/UB_1.jpg,Undersea,Malbow,stimuli/items/jungle_animal_44.png,Jungle,animal,si,stimuli/integrated/jungle_b_jungle_animal_44.jpg,None,0,,,0,0,0,0,0,64,64,64,,,,,259.35680170799606,,,,,,,,,,,,,,,,,,,,,,,,259.35113674998865,259.35680170799606,260.25835316698067,260.2584279169969,260.2694681669818,260.2694681669818,261.2532051249873,None,0,261.25337916699937,261.2594069579791,262.2530614580028,,,263.3530960829812,261.2594069579791,261.2594069579791,,,,,,,314,001,,,2026-04-26_18h16.21.327,encodingtask,,2025.2.4,None,2026-04-26 18h16.21.576293 +0200,
1,65,65,0,stimuli/TESTscenes/JB_1.jpg,Jungle,Tulon,stimuli/items/undersea_animal_27.png,Undersea,animal,si,stimuli/integrated/undersea_b_undersea_animal_27.jpg,None,0,,,0,0,0,0,0,65,65,65,,,,,263.3530960829812,,,,,,,,,,,,,,,,,,,,,,,,263.3475231670018,263.3530960829812,264.2592374999949,264.25931808300084,264.2692796670017,264.2692796670017,265.2529250420048,None,0,265.2530629999819,265.25909345800756,266.2425137079845,,,266.2799786249816,265.25909345800756,265.25909345800756,,,,,,,314,001,,,2026-04-26_18h16.21.327,encodingtask,,2025.2.4,None,2026-04-26 18h16.21.576293 +0200,
1,66,66,0,stimuli/TESTscenes/UA_1.jpg,Undersea,Somar,stimuli/items/undersea_animal_7.png,Undersea,animal,sc,stimuli/integrated/undersea_a_undersea_animal_7.jpg,None,0,,,0,0,0,0,0,66,66,66,,,,,266.2799786249816,,,,,,,,,,,,,,,,,,,,,,,,266.27470462498604,266.2799786249816,268.25833933299873,268.2584097079816,268.2691019999911,268.2691019999911,269.25272929199855,None,0,269.2528556250036,269.2579592919792,270.2409697919793,,,271.302355916996,269.2579592919792,269.2579592919792,,,,,,,314,001,,,2026-04-26_18h16.21.327,encodingtask,,2025.2.4,None,2026-04-26 18h16.21.576293 +0200,
1,67,67,0,stimuli/TESTscenes/JA_1.jpg,Jungle,Negvi,stimuli/items/undersea_object_5.png,Undersea,object,si,stimuli/integrated/undersea_b_undersea_object_5.jpg,None,0,,,0,0,0,0,0,67,67,67,,,,,271.302355916996,,,,,,,,,,,,,,,,,,,,,,,,271.2969240419916,271.302355916996,272.25845783299883,272.2585329579888,272.26938549999613,272.26938549999613,273.2528453329869,None,0,273.25298879199545,273.25879812499625,274.2528506249946,,,275.232251666981,273.25879812499625,273.25879812499625,,,,,,,314,001,,,2026-04-26_18h16.21.327,encodingtask,,2025.2.4,None,2026-04-26 18h16.21.576293 +0200,
1,68,68,0,stimuli/TESTscenes/UA_1.jpg,Undersea,Somar,stimuli/items/jungle_object_28.png,Jungle,object,si,stimuli/integrated/jungle_b_jungle_object_28.jpg,None,0,,,0,0,0,0,0,68,68,68,,,,,275.232251666981,,,,,,,,,,,,,,,,,,,,,,,,275.2268416250008,275.232251666981,276.2585652080015,276.25863900000695,276.26908537498093,276.26908537498093,277.25305870798184,None,0,277.2531537080067,277.25861912500113,278.2416689579841,,,279.31779583299067,277.25861912500113,277.25861912500113,,,,,,,314,001,,,2026-04-26_18h16.21.327,encodingtask,,2025.2.4,None,2026-04-26 18h16.21.576293 +0200,
1,69,69,0,stimuli/TESTscenes/JB_1.jpg,Jungle,Tulon,stimuli/items/undersea_object_25.png,Undersea,object,si,stimuli/integrated/undersea_a_undersea_object_25.jpg,None,0,,,0,0,0,0,0,69,69,69,,,,,279.31779583299067,,,,,,,,,,,,,,,,,,,,,,,,279.3124169999792,279.31779583299067,280.25923991698073,280.25932708298205,280.26933812498464,280.26933812498464,281.25274170798366,None,0,281.25285774999065,281.25851933300146,282.24237633298617,,,282.27907933300594,281.25851933300146,281.25851933300146,,,,,,,314,001,,,2026-04-26_18h16.21.327,encodingtask,,2025.2.4,None,2026-04-26 18h16.21.576293 +0200,
1,70,70,0,stimuli/TESTscenes/UA_1.jpg,Undersea,Somar,stimuli/items/undersea_animal_36.png,Undersea,animal,sc,stimuli/integrated/undersea_a_undersea_animal_36.jpg,None,0,,,0,0,0,0,0,70,70,70,,,,,282.27907933300594,,,,,,,,,,,,,,,,,,,,,,,,282.2737250000064,282.27907933300594,284.2582356669882,284.25831779200234,284.2690305419965,284.2690305419965,285.2526972919877,None,0,285.25284541698056,285.258905374998,286.2527125419874,,,287.2075427079981,285.258905374998,285.258905374998,,,,,,,314,001,,,2026-04-26_18h16.21.327,encodingtask,,2025.2.4,None,2026-04-26 18h16.21.576293 +0200,
1,71,71,0,stimuli/TESTscenes/JB_1.jpg,Jungle,Tulon,stimuli/items/undersea_animal_11.png,Undersea,animal,si,stimuli/integrated/undersea_a_undersea_animal_11.jpg,None,0,,,0,0,0,0,0,71,71,71,,,,,287.2075427079981,,,,,,,,,,,,,,,,,,,,,,,,287.2020189999894,287.2075427079981,288.2589733749919,288.2590542079997,288.26908620799077,288.26908620799077,289.2526951250038,None,0,289.2528774999955,289.25868783300393,290.24203983298503,,,291.3252102499828,289.25868783300393,289.25868783300393,,,,,,,314,001,,,2026-04-26_18h16.21.327,encodingtask,,2025.2.4,None,2026-04-26 18h16.21.576293 +0200,
1,72,72,0,stimuli/TESTscenes/UA_1.jpg,Undersea,Somar,stimuli/items/undersea_animal_40.png,Undersea,animal,sc,stimuli/integrated/undersea_b_undersea_animal_40.jpg,None,0,,,0,0,0,0,0,72,72,72,,,,,291.3252102499828,,,,,,,,,,,,,,,,,,,,,,,,291.31966333297896,291.3252102499828,292.2575633749948,292.2576512079977,292.2690015419794,292.2690015419794,293.25259604200255,None,0,293.25271387500106,293.25843941699713,294.25283887499245,,,295.3890294999874,293.25843941699713,293.25843941699713,,,,,,,314,001,,,2026-04-26_18h16.21.327,encodingtask,,2025.2.4,None,2026-04-26 18h16.21.576293 +0200,
1,73,73,0,stimuli/TESTscenes/UB_1.jpg,Undersea,Malbow,stimuli/items/undersea_animal_38.png,Undersea,animal,sc,stimuli/integrated/undersea_b_undersea_animal_38.jpg,None,0,,,0,0,0,0,0,73,73,73,,,,,295.3890294999874,,,,,,,,,,,,,,,,,,,,,,,,295.3834850419953,295.3890294999874,296.25835237500723,296.2584277080023,296.2689921249985,296.2689921249985,297.25261545798276,None,0,297.2527398329985,297.2582983330067,298.2411758749804,,,299.2995391669974,297.2582983330067,297.2582983330067,,,,,,,314,001,,,2026-04-26_18h16.21.327,encodingtask,,2025.2.4,None,2026-04-26 18h16.21.576293 +0200,
1,74,74,0,stimuli/TESTscenes/UA_1.jpg,Undersea,Somar,stimuli/items/jungle_object_31.png,Jungle,object,si,stimuli/integrated/jungle_a_jungle_object_31.jpg,None,0,,,0,0,0,0,0,74,74,74,,,,,299.2995391669974,,,,,,,,,,,,,,,,,,,,,,,,299.2942592079926,299.2995391669974,300.259213332989,300.25929241700214,300.2688127500005,300.2688127500005,301.2526547499874,None,0,301.2527687079855,301.2583881249884,302.2419986249879,,,303.3271893329802,301.2583881249884,301.2583881249884,,,,,,,314,001,,,2026-04-26_18h16.21.327,encodingtask,,2025.2.4,None,2026-04-26 18h16.21.576293 +0200,
1,75,75,0,stimuli/TESTscenes/JA_1.jpg,Jungle,Negvi,stimuli/items/undersea_animal_19.png,Undersea,animal,si,stimuli/integrated/undersea_b_undersea_animal_19.jpg,None,0,,,0,0,0,0,0,75,75,75,,,,,303.3271893329802,,,,,,,,,,,,,,,,,,,,,,,,303.32185924999067,303.3271893329802,304.2582534170069,304.25833287500427,304.26884141698247,304.26884141698247,305.25232808300643,None,0,305.25243741698796,305.25684591699974,306.2413790419814,,,307.2695013329794,305.25684591699974,305.25684591699974,,,,,,,314,001,,,2026-04-26_18h16.21.327,encodingtask,,2025.2.4,None,2026-04-26 18h16.21.576293 +0200,
1,76,76,0,stimuli/TESTscenes/JB_1.jpg,Jungle,Tulon,stimuli/items/undersea_object_7.png,Undersea,object,si,stimuli/integrated/undersea_b_undersea_object_7.jpg,None,0,,,0,0,0,0,0,76,76,76,,,,,307.2695013329794,,,,,,,,,,,,,,,,,,,,,,,,307.2639829579857,307.2695013329794,308.2573319579824,308.2574064169894,308.2691195420048,308.2691195420048,309.25246104199323,None,0,309.25259708298836,309.25777966697933,310.2420310419984,,,311.49799287499627,309.25777966697933,309.25777966697933,,,,,,,314,001,,,2026-04-26_18h16.21.327,encodingtask,,2025.2.4,None,2026-04-26 18h16.21.576293 +0200,
1,77,77,0,stimuli/TESTscenes/UB_1.jpg,Undersea,Malbow,stimuli/items/undersea_animal_6.png,Undersea,animal,sc,stimuli/integrated/undersea_b_undersea_animal_6.jpg,None,0,,,0,0,0,0,0,77,77,77,,,,,311.49799287499627,,,,,,,,,,,,,,,,,,,,,,,,311.4815423330001,311.49799287499627,312.2582246249949,312.25831083298544,312.2688309579971,312.2688309579971,313.25264012499247,None,0,313.2528636250063,313.25900370799354,314.24191941699246,,,315.3542193750036,313.25900370799354,313.25900370799354,,,,,,,314,001,,,2026-04-26_18h16.21.327,encodingtask,,2025.2.4,None,2026-04-26 18h16.21.576293 +0200,
1,78,78,0,stimuli/TESTscenes/UA_1.jpg,Undersea,Somar,stimuli/items/undersea_object_9.png,Undersea,object,sc,stimuli/integrated/undersea_a_undersea_object_9.jpg,None,0,,,0,0,0,0,0,78,78,78,,,,,315.3542193750036,,,,,,,,,,,,,,,,,,,,,,,,315.34863808299997,315.3542193750036,316.25847716699354,316.2585542500019,316.26905133298715,316.26905133298715,317.2528063750069,None,0,317.25293587500346,317.2587080829835,318.24208191700745,,,319.31206387499697,317.2587080829835,317.2587080829835,,,,,,,314,001,,,2026-04-26_18h16.21.327,encodingtask,,2025.2.4,None,2026-04-26 18h16.21.576293 +0200,
1,79,79,0,stimuli/TESTscenes/UB_1.jpg,Undersea,Malbow,stimuli/items/jungle_animal_11.png,Jungle,animal,si,stimuli/integrated/jungle_a_jungle_animal_11.jpg,None,0,,,0,0,0,0,0,79,79,79,,,,,319.31206387499697,,,,,,,,,,,,,,,,,,,,,,,,319.30659066699445,319.31206387499697,320.2580270830076,320.2581055419869,320.26894849998644,320.26894849998644,321.25238079199335,None,0,321.25249745798646,321.2581934579939,322.24214237500564,,,322.2830648329982,321.2581934579939,321.2581934579939,,,,,,,314,001,,,2026-04-26_18h16.21.327,encodingtask,,2025.2.4,None,2026-04-26 18h16.21.576293 +0200,
,0,0,0,,,,,,,,,,,,,,,,,,,,,0,0,0,0,322.2830648329982,,,,,,,,,,,,,,,,,,,,,,,,,,,,,,,,,,,,,,,,,322.26053458297974,322.26064100000076,322.2757311250025,322.2830648329982,322.2830648329982,322.2830648329982,,,,,,,,,,,
