run,thisN,thisTrialN,thisRepN,scene_stimulus,scene_cat,scene_label,item_stimulus,item_cat,item_type,congruency,integrated_stimulus,key_resp_congruency.keys,key_resp_congruency.corr,key_resp_next_run.keys,key_resp_next_run.rt,key_resp_next_run.duration,runs_trial.thisRepN,runs_trial.thisTrialN,runs_trial.thisN,runs_trial.thisIndex,trials.thisRepN,trials.thisTrialN,trials.thisN,trials.thisIndex,between_run_inst.thisRepN,between_run_inst.thisTrialN,between_run_inst.thisN,between_run_inst.thisIndex,thisRow.t,notes,get_relatedness_keys.started,get_relatedness_keys.stopped,instructions_screen.started,text_instructions.started,key_welcome.started,instructions_screen.stopped,key_welcome.keys,key_welcome.rt,key_welcome.duration,instruction_keys.started,text_keys.started,key_resp_keysInst.started,instruction_keys.stopped,key_resp_keysInst.keys,key_resp_keysInst.rt,key_resp_keysInst.duration,blank2000.started,text_2.started,text_2.stopped,blank2000.stopped,get_run_stim_list.started,get_run_stim_list.stopped,integrated_scene_presentation.started,image_integrated.started,integrated_scene_presentation.stopped,congruency_response.started,text_congruency.started,key_resp_congruency.started,text_congruency.stopped,key_resp_congruency.stopped,congruency_response.stopped,trials.key_resp_congruency.keys,trials.key_resp_congruency.corr,blank1000.started,text_8.started,text_8.stopped,blank1000.stopped,is_last_run.started,is_last_run.stopped,between_run_pause.started,text_run_pause.started,text_relatedness_pause.started,key_resp_next_run.started,between_run_pause.stopped,between_run_inst.key_resp_next_run.keys,between_run_inst.key_resp_next_run.rt,between_run_inst.key_resp_next_run.duration,end_screen.started,text_end.started,key_end.started,end_screen.stopped,key_end.keys,key_end.rt,key_end.duration,participant,session,group,delay,date,expName,expVersion,psychopyVersion,frameRate,expStart,
,,,,,,,,,,,,,,,,,,,,,,,,,,,,,,,0.012578082969412208,0.0126542910002172,,,,,,,,,,,,,,,,,,,,,,,,,,,,,,,,,,,,,,,,,,,,,,,,,,,,,321,001,,,2026-04-26_23h32.33.120,encodingtask,,2025.2.4,None,2026-04-26 23h32.33.357251 +0200,
,,,,,,,,,,,,,,,,,,,,,,,,,,,,,,,,,0.0126802499871701,0.02035141596570611,1.008268290956039,1.5703638329869136,space,0.29703125002561137,None,,,,,,,,,,,,,,,,,,,,,,,,,,,,,,,,,,,,,,,,,,,,,,321,001,,,2026-04-26_23h32.33.120,encodingtask,,2025.2.4,None,2026-04-26 23h32.33.357251 +0200,
,,,,,,,,,,,,,,,,,,,,,,,,,,,,,,,,,,,,,,,,1.5837851659744047,1.5974308329750784,1.5974308329750784,3.078051082964521,space,1.478979125036858,None,,,,,,,,,,,,,,,,,,,,,,,,,,,,,,,,,,,,,,,321,001,,,2026-04-26_23h32.33.120,encodingtask,,2025.2.4,None,2026-04-26 23h32.33.357251 +0200,
,,,,,,,,,,,,,,,,,,,,,,,,,,,,,,,,,,,,,,,,,,,,,,,3.0781639999477193,3.091005333000794,5.171691165945958,5.076950999966357,,,,,,,,,,,,,,,,,,,,,,,,,,,,,,,,,,,321,001,,,2026-04-26_23h32.33.120,encodingtask,,2025.2.4,None,2026-04-26 23h32.33.357251 +0200,
1,0,0,0,stimuli/TESTscenes/JA_1.jpg,Jungle,Negvi,stimuli/items/undersea_object_36.png,Undersea,object,si,stimuli/integrated/undersea_b_undersea_object_36.jpg,None,0,,,,0,0,0,0,0,0,0,0,,,,,5.171691165945958,,,,,,,,,,,,,,,,,,,,,,5.096683957963251,5.096767499984708,5.165614832949359,5.171691165945958,7.099304082978051,7.0993714579963125,7.108829040953424,7.108829040953424,8.107619374990463,8.107619374990463,8.093375790980645,None,0,8.093561040994246,8.107619374990463,9.142647374945227,9.093735957983881,,,,,,,,,,,,,,,,,,321,001,,,2026-04-26_23h32.33.120,encodingtask,,2025.2.4,None,2026-04-26 23h32.33.357251 +0200,
1,1,1,0,stimuli/TESTscenes/JB_1.jpg,Jungle,Malbow,stimuli/items/undersea_object_33.png,Undersea,object,si,stimuli/integrated/undersea_a_undersea_object_33.jpg,None,0,,,,0,0,0,0,0,1,1,1,,,,,9.142647374945227,,,,,,,,,,,,,,,,,,,,,,,,9.137494165974203,9.142647374945227,11.098036374954972,11.098122332943603,11.109897582966369,11.109897582966369,12.098592040943913,12.098592040943913,12.093389082991052,None,0,12.09347570798127,12.098592040943913,14.32328241597861,13.082576790999155,,,,,,,,,,,,,,,,,,321,001,,,2026-04-26_23h32.33.120,encodingtask,,2025.2.4,None,2026-04-26 23h32.33.357251 +0200,
1,2,2,0,stimuli/TESTscenes/JA_1.jpg,Jungle,Negvi,stimuli/items/undersea_animal_22.png,Undersea,animal,si,stimuli/integrated/undersea_a_undersea_animal_22.jpg,None,0,,,,0,0,0,0,0,2,2,2,,,,,14.32328241597861,,,,,,,,,,,,,,,,,,,,,,,,14.311149124987423,14.32328241597861,15.098707124998327,15.098777499981225,15.109853957954329,15.109853957954329,16.09913616598351,16.09913616598351,16.093361165956594,None,0,16.093467957980465,16.09913616598351,17.12050629098667,17.08268941595452,,,,,,,,,,,,,,,,,,321,001,,,2026-04-26_23h32.33.120,encodingtask,,2025.2.4,None,2026-04-26 23h32.33.357251 +0200,
1,3,3,0,stimuli/TESTscenes/UA_1.jpg,Undersea,Somar,stimuli/items/undersea_object_24.png,Undersea,object,sc,stimuli/integrated/undersea_b_undersea_object_24.jpg,None,0,,,,0,0,0,0,0,3,3,3,,,,,17.12050629098667,,,,,,,,,,,,,,,,,,,,,,,,17.115342040953692,17.12050629098667,19.10035587497987,19.100436290958896,19.109273415990174,19.109273415990174,20.099532041000202,20.099532041000202,20.09364795795409,None,0,20.093792957952246,20.099532041000202,21.12139883299824,21.082769040949643,,,,,,,,,,,,,,,,,,321,001,,,2026-04-26_23h32.33.120,encodingtask,,2025.2.4,None,2026-04-26 23h32.33.357251 +0200,
1,4,4,0,stimuli/TESTscenes/UB_1.jpg,Undersea,Tulon,stimuli/items/jungle_animal_13.png,Jungle,animal,si,stimuli/integrated/jungle_a_jungle_animal_13.jpg,None,0,,,,0,0,0,0,0,4,4,4,,,,,21.12139883299824,,,,,,,,,,,,,,,,,,,,,,,,21.11621995799942,21.12139883299824,23.10008908296004,23.10015587497037,23.109088375000283,23.109088375000283,24.098665582947433,24.098665582947433,24.09333591599716,None,0,24.093427082989365,24.098665582947433,25.119377957948018,25.082108165952377,,,,,,,,,,,,,,,,,,321,001,,,2026-04-26_23h32.33.120,encodingtask,,2025.2.4,None,2026-04-26 23h32.33.357251 +0200,
1,5,5,0,stimuli/TESTscenes/UA_1.jpg,Undersea,Somar,stimuli/items/jungle_object_25.png,Jungle,object,si,stimuli/integrated/jungle_b_jungle_object_25.jpg,None,0,,,,0,0,0,0,0,5,5,5,,,,,25.119377957948018,,,,,,,,,,,,,,,,,,,,,,,,25.114235290966462,25.119377957948018,27.098391540988814,27.098466707975604,27.10938741598511,27.10938741598511,28.09943087497959,28.09943087497959,28.093101665959693,None,0,28.093267707969062,28.09943087497959,30.226191374997143,29.08258870796999,,,,,,,,,,,,,,,,,,321,001,,,2026-04-26_23h32.33.120,encodingtask,,2025.2.4,None,2026-04-26 23h32.33.357251 +0200,
1,6,6,0,stimuli/TESTscenes/JA_1.jpg,Jungle,Negvi,stimuli/items/undersea_object_28.png,Undersea,object,si,stimuli/integrated/undersea_b_undersea_object_28.jpg,None,0,,,,0,0,0,0,0,6,6,6,,,,,30.226191374997143,,,,,,,,,,,,,,,,,,,,,,,,30.21723574999487,30.226191374997143,31.09956212498946,31.099628207972273,31.109792582981754,31.109792582981754,32.09988329099724,32.09988329099724,32.09353087499039,None,0,32.093708624946885,32.09988329099724,33.13261008297559,33.09328987495974,,,,,,,,,,,,,,,,,,321,001,,,2026-04-26_23h32.33.120,encodingtask,,2025.2.4,None,2026-04-26 23h32.33.357251 +0200,
1,7,7,0,stimuli/TESTscenes/JB_1.jpg,Jungle,Malbow,stimuli/items/undersea_object_15.png,Undersea,object,si,stimuli/integrated/undersea_b_undersea_object_15.jpg,None,0,,,,0,0,0,0,0,7,7,7,,,,,33.13261008297559,,,,,,,,,,,,,,,,,,,,,,,,33.127513040963095,33.13261008297559,35.09914754098281,35.09922958299285,35.109637124987785,35.109637124987785,36.09981924999738,36.09981924999738,36.0934651659918,None,0,36.093625957961194,36.09981924999738,38.0498180409777,37.09307866595918,,,,,,,,,,,,,,,,,,321,001,,,2026-04-26_23h32.33.120,encodingtask,,2025.2.4,None,2026-04-26 23h32.33.357251 +0200,
1,8,8,0,stimuli/TESTscenes/UA_1.jpg,Undersea,Somar,stimuli/items/undersea_animal_7.png,Undersea,animal,sc,stimuli/integrated/undersea_b_undersea_animal_7.jpg,None,0,,,,0,0,0,0,0,8,8,8,,,,,38.0498180409777,,,,,,,,,,,,,,,,,,,,,,,,38.04448391596088,38.0498180409777,39.099397415993735,39.0994805409573,39.10967062495183,39.10967062495183,40.09953416598728,40.09953416598728,40.09330233297078,None,0,40.093446415965445,40.09953416598728,42.39418524998473,41.08247520797886,,,,,,,,,,,,,,,,,,321,001,,,2026-04-26_23h32.33.120,encodingtask,,2025.2.4,None,2026-04-26 23h32.33.357251 +0200,
1,9,9,0,stimuli/TESTscenes/JB_1.jpg,Jungle,Malbow,stimuli/items/jungle_animal_4.png,Jungle,animal,sc,stimuli/integrated/jungle_b_jungle_animal_4.jpg,None,0,,,,0,0,0,0,0,9,9,9,,,,,42.39418524998473,,,,,,,,,,,,,,,,,,,,,,,,42.3854790829937,42.39418524998473,43.09866495797178,43.09873545798473,43.10955549997743,43.10955549997743,44.099938457948156,44.099938457948156,44.093727582949214,None,0,44.093872499943245,44.099938457948156,46.194676790968515,45.09330874995794,,,,,,,,,,,,,,,,,,321,001,,,2026-04-26_23h32.33.120,encodingtask,,2025.2.4,None,2026-04-26 23h32.33.357251 +0200,
1,10,10,0,stimuli/TESTscenes/UB_1.jpg,Undersea,Tulon,stimuli/items/jungle_object_8.png,Jungle,object,si,stimuli/integrated/jungle_a_jungle_object_8.jpg,None,0,,,,0,0,0,0,0,10,10,10,,,,,46.194676790968515,,,,,,,,,,,,,,,,,,,,,,,,46.185755332990084,46.194676790968515,47.09839837497566,47.09847891598474,47.10942316596629,47.10942316596629,48.098951415973715,48.098951415973715,48.09345058299368,None,0,48.09354316594545,48.098951415973715,50.14068162499461,49.08297249994939,,,,,,,,,,,,,,,,,,321,001,,,2026-04-26_23h32.33.120,encodingtask,,2025.2.4,None,2026-04-26 23h32.33.357251 +0200,
1,11,11,0,stimuli/TESTscenes/JB_1.jpg,Jungle,Malbow,stimuli/items/undersea_animal_17.png,Undersea,animal,si,stimuli/integrated/undersea_a_undersea_animal_17.jpg,None,0,,,,0,0,0,0,0,11,11,11,,,,,50.14068162499461,,,,,,,,,,,,,,,,,,,,,,,,50.13546470797155,50.14068162499461,51.098365082987584,51.09843362495303,51.109524874947965,51.109524874947965,52.09926704096142,52.09926704096142,52.09332295798231,None,0,52.093461915967055,52.09926704096142,53.13093112496426,53.093296582985204,,,,,,,,,,,,,,,,,,321,001,,,2026-04-26_23h32.33.120,encodingtask,,2025.2.4,None,2026-04-26 23h32.33.357251 +0200,
1,12,12,0,stimuli/TESTscenes/UB_1.jpg,Undersea,Tulon,stimuli/items/jungle_animal_18.png,Jungle,animal,si,stimuli/integrated/jungle_b_jungle_animal_18.jpg,None,0,,,,0,0,0,0,0,12,12,12,,,,,53.13093112496426,,,,,,,,,,,,,,,,,,,,,,,,53.125696790986694,53.13093112496426,55.09831662499346,55.098384790995624,55.10969470796408,55.10969470796408,56.09839420794742,56.09839420794742,56.09312408295227,None,0,56.09321470797295,56.09839420794742,58.05166304099839,57.082964707980864,,,,,,,,,,,,,,,,,,321,001,,,2026-04-26_23h32.33.120,encodingtask,,2025.2.4,None,2026-04-26 23h32.33.357251 +0200,
1,13,13,0,stimuli/TESTscenes/JB_1.jpg,Jungle,Malbow,stimuli/items/jungle_object_1.png,Jungle,object,sc,stimuli/integrated/jungle_b_jungle_object_1.jpg,None,0,,,,0,0,0,0,0,13,13,13,,,,,58.05166304099839,,,,,,,,,,,,,,,,,,,,,,,,58.04637241596356,58.05166304099839,59.10002741595963,59.100115499983076,59.10872095800005,59.10872095800005,60.09828362497501,60.09828362497501,60.093087874993216,None,0,60.093202290998306,60.09828362497501,62.2977094159578,61.08136574999662,,,,,,,,,,,,,,,,,,321,001,,,2026-04-26_23h32.33.120,encodingtask,,2025.2.4,None,2026-04-26 23h32.33.357251 +0200,
1,14,14,0,stimuli/TESTscenes/UB_1.jpg,Undersea,Tulon,stimuli/items/undersea_object_7.png,Undersea,object,sc,stimuli/integrated/undersea_a_undersea_object_7.jpg,None,0,,,,0,0,0,0,0,14,14,14,,,,,62.2977094159578,,,,,,,,,,,,,,,,,,,,,,,,62.28786083299201,62.2977094159578,63.099958165956195,63.10004341596505,63.10914395796135,63.10914395796135,64.09881358296843,64.09881358296843,64.09314008295769,None,0,64.09325866599102,64.09881358296843,65.11906050000107,65.08276437496534,,,,,,,,,,,,,,,,,,321,001,,,2026-04-26_23h32.33.120,encodingtask,,2025.2.4,None,2026-04-26 23h32.33.357251 +0200,
1,15,15,0,stimuli/TESTscenes/JB_1.jpg,Jungle,Malbow,stimuli/items/undersea_animal_11.png,Undersea,animal,si,stimuli/integrated/undersea_a_undersea_animal_11.jpg,None,0,,,,0,0,0,0,0,15,15,15,,,,,65.11906050000107,,,,,,,,,,,,,,,,,,,,,,,,65.11380033299793,65.11906050000107,67.09895641595358,67.09904824994737,67.10981399996672,67.10981399996672,68.09820829099044,68.09820829099044,68.09293629095191,None,0,68.09302541596116,68.09820829099044,70.0543247499736,69.08208195795305,,,,,,,,,,,,,,,,,,321,001,,,2026-04-26_23h32.33.120,encodingtask,,2025.2.4,None,2026-04-26 23h32.33.357251 +0200,
1,16,16,0,stimuli/TESTscenes/UA_1.jpg,Undersea,Somar,stimuli/items/undersea_object_25.png,Undersea,object,sc,stimuli/integrated/undersea_b_undersea_object_25.jpg,None,0,,,,0,0,0,0,0,16,16,16,,,,,70.0543247499736,,,,,,,,,,,,,,,,,,,,,,,,70.04907012498006,70.0543247499736,71.09859595797025,71.09867983299773,71.10902254097164,71.10902254097164,72.09902741597034,72.09902741597034,72.09303316596197,None,0,72.09318524994887,72.09902741597034,73.13091320794774,73.09305241599213,,,,,,,,,,,,,,,,,,321,001,,,2026-04-26_23h32.33.120,encodingtask,,2025.2.4,None,2026-04-26 23h32.33.357251 +0200,
1,17,17,0,stimuli/TESTscenes/UB_1.jpg,Undersea,Tulon,stimuli/items/undersea_animal_25.png,Undersea,animal,sc,stimuli/integrated/undersea_a_undersea_animal_25.jpg,None,0,,,,0,0,0,0,0,17,17,17,,,,,73.13091320794774,,,,,,,,,,,,,,,,,,,,,,,,73.12581466598203,73.13091320794774,75.09952662495198,75.09960224997485,75.10973845794797,75.10973845794797,76.0978754159878,76.0978754159878,76.09289624996018,None,0,76.09298783296254,76.0978754159878,78.28886649996275,77.08105558296666,,,,,,,,,,,,,,,,,,321,001,,,2026-04-26_23h32.33.120,encodingtask,,2025.2.4,None,2026-04-26 23h32.33.357251 +0200,
1,18,18,0,stimuli/TESTscenes/UA_1.jpg,Undersea,Somar,stimuli/items/undersea_animal_6.png,Undersea,animal,sc,stimuli/integrated/undersea_a_undersea_animal_6.jpg,None,0,,,,0,0,0,0,0,18,18,18,,,,,78.28886649996275,,,,,,,,,,,,,,,,,,,,,,,,78.27804983296664,78.28886649996275,79.09915824997006,79.09923749999143,79.10951162496349,79.10951162496349,80.09895054099616,80.09895054099616,80.09323145798407,None,0,80.09336479095509,80.09895054099616,81.11799833294936,81.0819838749594,,,,,,,,,,,,,,,,,,321,001,,,2026-04-26_23h32.33.120,encodingtask,,2025.2.4,None,2026-04-26 23h32.33.357251 +0200,
1,19,19,0,stimuli/TESTscenes/JA_1.jpg,Jungle,Negvi,stimuli/items/undersea_animal_3.png,Undersea,animal,si,stimuli/integrated/undersea_a_undersea_animal_3.jpg,None,0,,,,0,0,0,0,0,19,19,19,,,,,81.11799833294936,,,,,,,,,,,,,,,,,,,,,,,,81.11288420797791,81.11799833294936,83.0981721659773,83.09826025000075,83.10931974998675,83.10931974998675,84.0995150829549,84.0995150829549,84.09306866599945,None,0,84.0933308749809,84.0995150829549,85.13109174999408,85.09303495800123,,,,,,,,,,,,,,,,,,321,001,,,2026-04-26_23h32.33.120,encodingtask,,2025.2.4,None,2026-04-26 23h32.33.357251 +0200,
1,20,20,0,stimuli/TESTscenes/JB_1.jpg,Jungle,Malbow,stimuli/items/jungle_animal_11.png,Jungle,animal,sc,stimuli/integrated/jungle_b_jungle_animal_11.jpg,None,0,,,,0,0,0,0,0,20,20,20,,,,,85.13109174999408,,,,,,,,,,,,,,,,,,,,,,,,85.12590420799097,85.13109174999408,87.09951204096433,87.09958879096666,87.10883591597667,87.10883591597667,88.09938599995803,88.09938599995803,88.09293724998133,None,0,88.09309662494343,88.09938599995803,90.16244104097132,89.08228049997706,,,,,,,,,,,,,,,,,,321,001,,,2026-04-26_23h32.33.120,encodingtask,,2025.2.4,None,2026-04-26 23h32.33.357251 +0200,
1,21,21,0,stimuli/TESTscenes/UA_1.jpg,Undersea,Somar,stimuli/items/jungle_object_24.png,Jungle,object,si,stimuli/integrated/jungle_a_jungle_object_24.jpg,None,0,,,,0,0,0,0,0,21,21,21,,,,,90.16244104097132,,,,,,,,,,,,,,,,,,,,,,,,90.15418195794336,90.16244104097132,91.09941504098242,91.09949270798825,91.10935020796023,91.10935020796023,92.09865916596027,92.09865916596027,92.09283029095968,None,0,92.092960665992,92.09865916596027,93.1192673749756,93.0820204159827,,,,,,,,,,,,,,,,,,321,001,,,2026-04-26_23h32.33.120,encodingtask,,2025.2.4,None,2026-04-26 23h32.33.357251 +0200,
1,22,22,0,stimuli/TESTscenes/JA_1.jpg,Jungle,Negvi,stimuli/items/undersea_object_37.png,Undersea,object,si,stimuli/integrated/undersea_b_undersea_object_37.jpg,None,0,,,,0,0,0,0,0,22,22,22,,,,,93.1192673749756,,,,,,,,,,,,,,,,,,,,,,,,93.11404620797839,93.1192673749756,95.0987540409551,95.0988299579476,95.10920666594757,95.10920666594757,96.09874741599197,96.09874741599197,96.0929700829438,None,0,96.09309912496246,96.09874741599197,98.05182441597572,97.08201020798879,,,,,,,,,,,,,,,,,,321,001,,,2026-04-26_23h32.33.120,encodingtask,,2025.2.4,None,2026-04-26 23h32.33.357251 +0200,
1,23,23,0,stimuli/TESTscenes/UA_1.jpg,Undersea,Somar,stimuli/items/undersea_object_3.png,Undersea,object,sc,stimuli/integrated/undersea_b_undersea_object_3.jpg,None,0,,,,0,0,0,0,0,23,23,23,,,,,98.05182441597572,,,,,,,,,,,,,,,,,,,,,,,,98.04653095797403,98.05182441597572,99.10001899994677,99.10010537499329,99.10869204095798,99.10869204095798,100.0995129160001,100.0995129160001,100.09310462494614,None,0,100.0933019159711,100.0995129160001,101.1311169579858,101.09297391597647,,,,,,,,,,,,,,,,,,321,001,,,2026-04-26_23h32.33.120,encodingtask,,2025.2.4,None,2026-04-26 23h32.33.357251 +0200,
1,24,24,0,stimuli/TESTscenes/JB_1.jpg,Jungle,Malbow,stimuli/items/jungle_object_21.png,Jungle,object,sc,stimuli/integrated/jungle_a_jungle_object_21.jpg,None,0,,,,0,0,0,0,0,24,24,24,,,,,101.1311169579858,,,,,,,,,,,,,,,,,,,,,,,,101.12588333297754,101.1311169579858,103.0994485829724,103.09953129099449,103.10913708299631,103.10913708299631,104.09895662497729,104.09895662497729,104.09308424999472,None,0,104.09323162498185,104.09895662497729,105.13153629098088,105.09266620798735,,,,,,,,,,,,,,,,,,321,001,,,2026-04-26_23h32.33.120,encodingtask,,2025.2.4,None,2026-04-26 23h32.33.357251 +0200,
1,25,25,0,stimuli/TESTscenes/UA_1.jpg,Undersea,Somar,stimuli/items/jungle_object_15.png,Jungle,object,si,stimuli/integrated/jungle_a_jungle_object_15.jpg,None,0,,,,0,0,0,0,0,25,25,25,,,,,105.13153629098088,,,,,,,,,,,,,,,,,,,,,,,,105.12632820795989,105.13153629098088,107.09813537495211,107.09821387496777,107.10916141595226,107.10916141595226,108.09884191595484,108.09884191595484,108.09278795798309,None,0,108.09294474998023,108.09884191595484,110.22566099994583,109.0819621659466,,,,,,,,,,,,,,,,,,321,001,,,2026-04-26_23h32.33.120,encodingtask,,2025.2.4,None,2026-04-26 23h32.33.357251 +0200,
1,26,26,0,stimuli/TESTscenes/JA_1.jpg,Jungle,Negvi,stimuli/items/jungle_object_39.png,Jungle,object,sc,stimuli/integrated/jungle_a_jungle_object_39.jpg,None,0,,,,0,0,0,0,0,26,26,26,,,,,110.22566099994583,,,,,,,,,,,,,,,,,,,,,,,,110.22031824995065,110.22566099994583,111.09971916599898,111.09980145795271,111.10892241599504,111.10892241599504,112.09875262499554,112.09875262499554,112.09276320796926,None,0,112.09287208295427,112.09875262499554,113.11989154096227,113.0826617499697,,,,,,,,,,,,,,,,,,321,001,,,2026-04-26_23h32.33.120,encodingtask,,2025.2.4,None,2026-04-26 23h32.33.357251 +0200,
1,27,27,0,stimuli/TESTscenes/UA_1.jpg,Undersea,Somar,stimuli/items/undersea_animal_40.png,Undersea,animal,sc,stimuli/integrated/undersea_b_undersea_animal_40.jpg,None,0,,,,0,0,0,0,0,27,27,27,,,,,113.11989154096227,,,,,,,,,,,,,,,,,,,,,,,,113.11474170797737,113.11989154096227,115.09794620797038,115.0980309159495,115.1091015409911,115.1091015409911,116.09833483299008,116.09833483299008,116.09270987496711,None,0,116.09281608299352,116.09833483299008,117.11979820794659,117.08195424999576,,,,,,,,,,,,,,,,,,321,001,,,2026-04-26_23h32.33.120,encodingtask,,2025.2.4,None,2026-04-26 23h32.33.357251 +0200,
1,28,28,0,stimuli/TESTscenes/JA_1.jpg,Jungle,Negvi,stimuli/items/jungle_object_5.png,Jungle,object,sc,stimuli/integrated/jungle_b_jungle_object_5.jpg,None,0,,,,0,0,0,0,0,28,28,28,,,,,117.11979820794659,,,,,,,,,,,,,,,,,,,,,,,,117.11469183297595,117.11979820794659,119.09899591596331,119.09908912499668,119.10823191597592,119.10823191597592,120.09913749998668,120.09913749998668,120.09287166595459,None,0,120.09302045794902,120.09913749998668,121.1320565409842,121.09286591596901,,,,,,,,,,,,,,,,,,321,001,,,2026-04-26_23h32.33.120,encodingtask,,2025.2.4,None,2026-04-26 23h32.33.357251 +0200,
1,29,29,0,stimuli/TESTscenes/UA_1.jpg,Undersea,Somar,stimuli/items/undersea_animal_2.png,Undersea,animal,sc,stimuli/integrated/undersea_b_undersea_animal_2.jpg,None,0,,,,0,0,0,0,0,29,29,29,,,,,121.1320565409842,,,,,,,,,,,,,,,,,,,,,,,,121.12648516596528,121.1320565409842,123.09853224997642,123.09861358295893,123.10868145799031,123.10868145799031,124.09834874997614,124.09834874997614,124.09255683299853,None,0,124.09267704095691,124.09834874997614,126.9640522080008,125.09280162496725,,,,,,,,,,,,,,,,,,321,001,,,2026-04-26_23h32.33.120,encodingtask,,2025.2.4,None,2026-04-26 23h32.33.357251 +0200,
1,30,30,0,stimuli/TESTscenes/UB_1.jpg,Undersea,Tulon,stimuli/items/undersea_animal_10.png,Undersea,animal,sc,stimuli/integrated/undersea_a_undersea_animal_10.jpg,None,0,,,,0,0,0,0,0,30,30,30,,,,,126.9640522080008,,,,,,,,,,,,,,,,,,,,,,,,126.95274320797762,126.9640522080008,127.09755033295369,127.09762149996823,127.10909445799189,127.10909445799189,128.0967542079743,128.0967542079743,128.09245516598457,None,0,128.092545624997,128.0967542079743,130.17949708295055,129.08007749996614,,,,,,,,,,,,,,,,,,321,001,,,2026-04-26_23h32.33.120,encodingtask,,2025.2.4,None,2026-04-26 23h32.33.357251 +0200,
1,31,31,0,stimuli/TESTscenes/UA_1.jpg,Undersea,Somar,stimuli/items/jungle_animal_29.png,Jungle,animal,si,stimuli/integrated/jungle_b_jungle_animal_29.jpg,None,0,,,,0,0,0,0,0,31,31,31,,,,,130.17949708295055,,,,,,,,,,,,,,,,,,,,,,,,130.1704234579811,130.17949708295055,131.0972115409677,131.09727408294566,131.10899983299896,131.10899983299896,132.09881504095392,132.09881504095392,132.0926944159437,None,0,132.0927672079997,132.09881504095392,134.05114795797272,133.09259470796678,,,,,,,,,,,,,,,,,,321,001,,,2026-04-26_23h32.33.120,encodingtask,,2025.2.4,None,2026-04-26 23h32.33.357251 +0200,
1,32,32,0,stimuli/TESTscenes/JA_1.jpg,Jungle,Negvi,stimuli/items/jungle_animal_28.png,Jungle,animal,sc,stimuli/integrated/jungle_a_jungle_animal_28.jpg,None,0,,,,0,0,0,0,0,32,32,32,,,,,134.05114795797272,,,,,,,,,,,,,,,,,,,,,,,,134.04593033296987,134.05114795797272,135.0989787079743,135.09906179097015,135.10898333298974,135.10898333298974,136.0980564999627,136.0980564999627,136.09271595795872,None,0,136.09280770795885,136.0980564999627,137.11953187495237,137.08113929099636,,,,,,,,,,,,,,,,,,321,001,,,2026-04-26_23h32.33.120,encodingtask,,2025.2.4,None,2026-04-26 23h32.33.357251 +0200,
1,33,33,0,stimuli/TESTscenes/UA_1.jpg,Undersea,Somar,stimuli/items/undersea_object_20.png,Undersea,object,sc,stimuli/integrated/undersea_b_undersea_object_20.jpg,None,0,,,,0,0,0,0,0,33,33,33,,,,,137.11953187495237,,,,,,,,,,,,,,,,,,,,,,,,137.11433699994814,137.11953187495237,139.09967533295276,139.09975033299997,139.10881729098037,139.10881729098037,140.0988470829907,140.0988470829907,140.09270254097646,None,0,140.09286479098955,140.0988470829907,142.05094079097034,141.09271399996942,,,,,,,,,,,,,,,,,,321,001,,,2026-04-26_23h32.33.120,encodingtask,,2025.2.4,None,2026-04-26 23h32.33.357251 +0200,
1,34,34,0,stimuli/TESTscenes/JB_1.jpg,Jungle,Malbow,stimuli/items/jungle_object_3.png,Jungle,object,sc,stimuli/integrated/jungle_a_jungle_object_3.jpg,None,0,,,,0,0,0,0,0,34,34,34,,,,,142.05094079097034,,,,,,,,,,,,,,,,,,,,,,,,142.04569695796818,142.05094079097034,143.09817279095296,143.09825437498512,143.10884283296764,143.10884283296764,144.09867987496546,144.09867987496546,144.09255329094594,None,0,144.09269745799247,144.09867987496546,145.13023812498432,145.0927265409846,,,,,,,,,,,,,,,,,,321,001,,,2026-04-26_23h32.33.120,encodingtask,,2025.2.4,None,2026-04-26 23h32.33.357251 +0200,
1,35,35,0,stimuli/TESTscenes/UA_1.jpg,Undersea,Somar,stimuli/items/jungle_animal_36.png,Jungle,animal,si,stimuli/integrated/jungle_b_jungle_animal_36.jpg,None,0,,,,0,0,0,0,0,35,35,35,,,,,145.13023812498432,,,,,,,,,,,,,,,,,,,,,,,,145.1252360829967,145.13023812498432,147.09830654098187,147.09838087495882,147.10841674997937,147.10841674997937,148.0985644159955,148.0985644159955,148.0926360829617,None,0,148.0927751659765,148.0985644159955,149.11867762496695,149.0816840409534,,,,,,,,,,,,,,,,,,321,001,,,2026-04-26_23h32.33.120,encodingtask,,2025.2.4,None,2026-04-26 23h32.33.357251 +0200,
1,36,36,0,stimuli/TESTscenes/JB_1.jpg,Jungle,Malbow,stimuli/items/undersea_object_1.png,Undersea,object,si,stimuli/integrated/undersea_b_undersea_object_1.jpg,None,0,,,,0,0,0,0,0,36,36,36,,,,,149.11867762496695,,,,,,,,,,,,,,,,,,,,,,,,149.11360262497328,149.11867762496695,151.09865424997406,151.09873804094968,151.10835458297515,151.10835458297515,152.09941516595427,152.09941516595427,152.09281824994832,None,0,152.09295174997533,152.09941516595427,153.1306415409781,153.09243066597264,,,,,,,,,,,,,,,,,,321,001,,,2026-04-26_23h32.33.120,encodingtask,,2025.2.4,None,2026-04-26 23h32.33.357251 +0200,
1,37,37,0,stimuli/TESTscenes/UA_1.jpg,Undersea,Somar,stimuli/items/jungle_object_2.png,Jungle,object,si,stimuli/integrated/jungle_a_jungle_object_2.jpg,None,0,,,,0,0,0,0,0,37,37,37,,,,,153.1306415409781,,,,,,,,,,,,,,,,,,,,,,,,153.12549849995412,153.1306415409781,155.09821166598704,155.09828404098516,155.10843008296797,155.10843008296797,156.09852020797553,156.09852020797553,156.09224699996412,None,0,156.0924079999677,156.09852020797553,158.20941041596234,157.0923192909686,,,,,,,,,,,,,,,,,,321,001,,,2026-04-26_23h32.33.120,encodingtask,,2025.2.4,None,2026-04-26 23h32.33.357251 +0200,
1,38,38,0,stimuli/TESTscenes/UB_1.jpg,Undersea,Tulon,stimuli/items/jungle_animal_3.png,Jungle,animal,si,stimuli/integrated/jungle_a_jungle_animal_3.jpg,None,0,,,,0,0,0,0,0,38,38,38,,,,,158.20941041596234,,,,,,,,,,,,,,,,,,,,,,,,158.2040437909891,158.20941041596234,159.09813645796385,159.09822070796508,159.10899354098365,159.10899354098365,160.0988335829461,160.0988335829461,160.09235258295666,None,0,160.09250249998877,160.0988335829461,161.13082908297656,161.09259683295386,,,,,,,,,,,,,,,,,,321,001,,,2026-04-26_23h32.33.120,encodingtask,,2025.2.4,None,2026-04-26 23h32.33.357251 +0200,
1,39,39,0,stimuli/TESTscenes/UA_1.jpg,Undersea,Somar,stimuli/items/jungle_animal_42.png,Jungle,animal,si,stimuli/integrated/jungle_b_jungle_animal_42.jpg,None,0,,,,0,0,0,0,0,39,39,39,,,,,161.13082908297656,,,,,,,,,,,,,,,,,,,,,,,,161.12568549998105,161.13082908297656,163.09789441595785,163.09796058299253,163.10831083299126,163.10831083299126,164.0976388329873,164.0976388329873,164.0920791659737,None,0,164.09217812499264,164.0976388329873,166.04801066598156,165.08172083296813,,,,,,,,,,,,,,,,,,321,001,,,2026-04-26_23h32.33.120,encodingtask,,2025.2.4,None,2026-04-26 23h32.33.357251 +0200,
1,40,40,0,stimuli/TESTscenes/UB_1.jpg,Undersea,Tulon,stimuli/items/jungle_object_27.png,Jungle,object,si,stimuli/integrated/jungle_a_jungle_object_27.jpg,None,0,,,,0,0,0,0,0,40,40,40,,,,,166.04801066598156,,,,,,,,,,,,,,,,,,,,,,,,166.04281991597963,166.04801066598156,167.0988176659448,167.0988942909753,167.10873666597763,167.10873666597763,168.09864216594724,168.09864216594724,168.0924140829593,None,0,168.09257499995874,168.09864216594724,169.13072633295087,169.09280504100025,,,,,,,,,,,,,,,,,,321,001,,,2026-04-26_23h32.33.120,encodingtask,,2025.2.4,None,2026-04-26 23h32.33.357251 +0200,
1,41,41,0,stimuli/TESTscenes/JA_1.jpg,Jungle,Negvi,stimuli/items/undersea_animal_23.png,Undersea,animal,si,stimuli/integrated/undersea_a_undersea_animal_23.jpg,None,0,,,,0,0,0,0,0,41,41,41,,,,,169.13072633295087,,,,,,,,,,,,,,,,,,,,,,,,169.12556262494763,169.13072633295087,171.09891374997096,171.09899662499083,171.10868995799683,171.10868995799683,172.09861399995862,172.09861399995862,172.09236899996176,None,0,172.09253954095766,172.09861399995862,173.11765133298468,173.08131237496855,,,,,,,,,,,,,,,,,,321,001,,,2026-04-26_23h32.33.120,encodingtask,,2025.2.4,None,2026-04-26 23h32.33.357251 +0200,
1,42,42,0,stimuli/TESTscenes/UB_1.jpg,Undersea,Tulon,stimuli/items/undersea_animal_4.png,Undersea,animal,sc,stimuli/integrated/undersea_b_undersea_animal_4.jpg,None,0,,,,0,0,0,0,0,42,42,42,,,,,173.11765133298468,,,,,,,,,,,,,,,,,,,,,,,,173.11252366600093,173.11765133298468,175.09838845796185,175.09846470796037,175.10859904094832,175.10859904094832,176.09816208295524,176.09816208295524,176.09210362494923,None,0,176.0922539579915,176.09816208295524,177.11893554095877,177.0816697079572,,,,,,,,,,,,,,,,,,321,001,,,2026-04-26_23h32.33.120,encodingtask,,2025.2.4,None,2026-04-26 23h32.33.357251 +0200,
1,43,43,0,stimuli/TESTscenes/JB_1.jpg,Jungle,Malbow,stimuli/items/undersea_animal_14.png,Undersea,animal,si,stimuli/integrated/undersea_a_undersea_animal_14.jpg,None,0,,,,0,0,0,0,0,43,43,43,,,,,177.11893554095877,,,,,,,,,,,,,,,,,,,,,,,,177.11382074997528,177.11893554095877,179.09762999997474,179.0977148329839,179.108701249992,179.108701249992,180.09844524995424,180.09844524995424,180.09259874996496,None,0,180.0927579579875,180.09844524995424,181.1215000829543,181.08222629094962,,,,,,,,,,,,,,,,,,321,001,,,2026-04-26_23h32.33.120,encodingtask,,2025.2.4,None,2026-04-26 23h32.33.357251 +0200,
1,44,44,0,stimuli/TESTscenes/UB_1.jpg,Undersea,Tulon,stimuli/items/undersea_object_18.png,Undersea,object,sc,stimuli/integrated/undersea_a_undersea_object_18.jpg,None,0,,,,0,0,0,0,0,44,44,44,,,,,181.1215000829543,,,,,,,,,,,,,,,,,,,,,,,,181.11560191598255,181.1215000829543,183.10880616598297,183.10895295796217,183.114596874977,183.114596874977,,,184.10769916599384,None,0,184.10792487498838,184.11324937496101,,185.09844499995233,,,,,,,,,,,,,,,,,,321,001,,,2026-04-26_23h32.33.120,encodingtask,,2025.2.4,None,2026-04-26 23h32.33.357251 +0200,
1,45,45,0,stimuli/TESTscenes/JA_1.jpg,Jungle,Negvi,stimuli/items/jungle_animal_44.png,Jungle,animal,sc,stimuli/integrated/jungle_b_jungle_animal_44.jpg,None,0,,,,0,0,0,0,0,45,45,45,,,,,185.1373311249772,,,,,,,,,,,,,,,,,,,,,,,,185.13165258296067,185.1373311249772,187.09878383297473,187.09886099997675,187.10822670796188,187.10822670796188,188.0982751659467,188.0982751659467,188.0920227499446,None,0,188.09217820799677,188.0982751659467,189.11841012496734,189.08118783298414,,,,,,,,,,,,,,,,,,321,001,,,2026-04-26_23h32.33.120,encodingtask,,2025.2.4,None,2026-04-26 23h32.33.357251 +0200,
1,46,46,0,stimuli/TESTscenes/UB_1.jpg,Undersea,Tulon,stimuli/items/jungle_animal_19.png,Jungle,animal,si,stimuli/integrated/jungle_a_jungle_animal_19.jpg,None,0,,,,0,0,0,0,0,46,46,46,,,,,189.11841012496734,,,,,,,,,,,,,,,,,,,,,,,,189.11318799998844,189.11841012496734,191.09757012495538,191.09764762496343,191.10860558296554,191.10860558296554,192.098007707973,192.098007707973,192.09206087497296,None,0,192.09221587498905,192.098007707973,194.1383981249528,193.0813531249878,,,,,,,,,,,,,,,,,,321,001,,,2026-04-26_23h32.33.120,encodingtask,,2025.2.4,None,2026-04-26 23h32.33.357251 +0200,
1,47,47,0,stimuli/TESTscenes/JB_1.jpg,Jungle,Malbow,stimuli/items/jungle_object_19.png,Jungle,object,sc,stimuli/integrated/jungle_b_jungle_object_19.jpg,None,0,,,,0,0,0,0,0,47,47,47,,,,,194.1383981249528,,,,,,,,,,,,,,,,,,,,,,,,194.1306163329864,194.1383981249528,195.0983257079497,195.0984171249438,195.108502707968,195.108502707968,196.09718791599153,196.09718791599153,196.09204879094614,None,0,196.0921209579683,196.09718791599153,198.05362745799357,197.08127466595033,,,,,,,,,,,,,,,,,,321,001,,,2026-04-26_23h32.33.120,encodingtask,,2025.2.4,None,2026-04-26 23h32.33.357251 +0200,
1,48,48,0,stimuli/TESTscenes/JA_1.jpg,Jungle,Negvi,stimuli/items/jungle_object_18.png,Jungle,object,sc,stimuli/integrated/jungle_b_jungle_object_18.jpg,None,0,,,,0,0,0,0,0,48,48,48,,,,,198.05362745799357,,,,,,,,,,,,,,,,,,,,,,,,198.0484257079661,198.05362745799357,199.09727187495446,199.0973554579541,199.10849166597473,199.10849166597473,200.09864795795875,200.09864795795875,200.09226329094963,None,0,200.09239987499313,200.09864795795875,202.19804954098072,201.09194495796692,,,,,,,,,,,,,,,,,,321,001,,,2026-04-26_23h32.33.120,encodingtask,,2025.2.4,None,2026-04-26 23h32.33.357251 +0200,
1,49,49,0,stimuli/TESTscenes/UA_1.jpg,Undersea,Somar,stimuli/items/jungle_object_38.png,Jungle,object,si,stimuli/integrated/jungle_b_jungle_object_38.jpg,None,0,,,,0,0,0,0,0,49,49,49,,,,,202.19804954098072,,,,,,,,,,,,,,,,,,,,,,,,202.18943412497174,202.19804954098072,203.09887141594663,203.09895966597833,203.108248540957,203.108248540957,204.09854749997612,204.09854749997612,204.0924820409855,None,0,204.09262491599657,204.09854749997612,205.13044520799303,205.09194299997762,,,,,,,,,,,,,,,,,,321,001,,,2026-04-26_23h32.33.120,encodingtask,,2025.2.4,None,2026-04-26 23h32.33.357251 +0200,
1,50,50,0,stimuli/TESTscenes/UB_1.jpg,Undersea,Tulon,stimuli/items/undersea_animal_36.png,Undersea,animal,sc,stimuli/integrated/undersea_a_undersea_animal_36.jpg,None,0,,,,0,0,0,0,0,50,50,50,,,,,205.13044520799303,,,,,,,,,,,,,,,,,,,,,,,,205.1252919579856,205.13044520799303,207.09900074999314,207.0990879579913,207.10866195795825,207.10866195795825,208.09771449997788,208.09771449997788,208.09207066596719,None,0,208.09217820799677,208.09771449997788,210.05205791594926,209.08179212495452,,,,,,,,,,,,,,,,,,321,001,,,2026-04-26_23h32.33.120,encodingtask,,2025.2.4,None,2026-04-26 23h32.33.357251 +0200,
1,51,51,0,stimuli/TESTscenes/JA_1.jpg,Jungle,Negvi,stimuli/items/undersea_object_9.png,Undersea,object,si,stimuli/integrated/undersea_b_undersea_object_9.jpg,None,0,,,,0,0,0,0,0,51,51,51,,,,,210.05205791594926,,,,,,,,,,,,,,,,,,,,,,,,210.04676366597414,210.05205791594926,211.0988125409931,211.09889658296015,211.10833733296022,211.10833733296022,212.09858462499687,212.09858462499687,212.0923212079797,None,0,212.09246304095723,212.09858462499687,213.11882437497843,213.0816424159566,,,,,,,,,,,,,,,,,,321,001,,,2026-04-26_23h32.33.120,encodingtask,,2025.2.4,None,2026-04-26 23h32.33.357251 +0200,
1,52,52,0,stimuli/TESTscenes/JB_1.jpg,Jungle,Malbow,stimuli/items/undersea_animal_28.png,Undersea,animal,si,stimuli/integrated/undersea_a_undersea_animal_28.jpg,None,0,,,,0,0,0,0,0,52,52,52,,,,,213.11882437497843,,,,,,,,,,,,,,,,,,,,,,,,213.1135627499898,213.11882437497843,215.0986395829823,215.09872433298733,215.10835233295802,215.10835233295802,216.09852974995738,216.09852974995738,216.0922000829596,None,0,216.09234262496466,216.09852974995738,218.15936670795782,217.08123399998294,,,,,,,,,,,,,,,,,,321,001,,,2026-04-26_23h32.33.120,encodingtask,,2025.2.4,None,2026-04-26 23h32.33.357251 +0200,
1,53,53,0,stimuli/TESTscenes/JA_1.jpg,Jungle,Negvi,stimuli/items/undersea_animal_19.png,Undersea,animal,si,stimuli/integrated/undersea_a_undersea_animal_19.jpg,None,0,,,,0,0,0,0,0,53,53,53,,,,,218.15936670795782,,,,,,,,,,,,,,,,,,,,,,,,218.1543515829835,218.15936670795782,219.09900899999775,219.09909537498606,219.1072104999912,219.1072104999912,220.09830941597465,220.09830941597465,220.09208141599083,None,0,220.0922268749564,220.09830941597465,222.05117654096102,221.0811705829692,,,,,,,,,,,,,,,,,,321,001,,,2026-04-26_23h32.33.120,encodingtask,,2025.2.4,None,2026-04-26 23h32.33.357251 +0200,
1,54,54,0,stimuli/TESTscenes/UB_1.jpg,Undersea,Tulon,stimuli/items/jungle_object_32.png,Jungle,object,si,stimuli/integrated/jungle_b_jungle_object_32.jpg,None,0,,,,0,0,0,0,0,54,54,54,,,,,222.05117654096102,,,,,,,,,,,,,,,,,,,,,,,,222.04589933296666,222.05117654096102,223.09870220796438,223.09878679097164,223.10821520799072,223.10821520799072,224.09790666599292,224.09790666599292,224.09200304094702,None,0,224.09211237495765,224.09790666599292,225.11766433296725,225.0807130409521,,,,,,,,,,,,,,,,,,321,001,,,2026-04-26_23h32.33.120,encodingtask,,2025.2.4,None,2026-04-26 23h32.33.357251 +0200,
1,55,55,0,stimuli/TESTscenes/JA_1.jpg,Jungle,Negvi,stimuli/items/jungle_animal_1.png,Jungle,animal,sc,stimuli/integrated/jungle_b_jungle_animal_1.jpg,None,0,,,,0,0,0,0,0,55,55,55,,,,,225.11766433296725,,,,,,,,,,,,,,,,,,,,,,,,225.11258412495954,225.11766433296725,227.09862549998797,227.09870608296478,227.10810370795662,227.10810370795662,228.0973174579558,228.0973174579558,228.09184904099675,None,0,228.091959915997,228.0973174579558,229.11839204095304,229.08115370798623,,,,,,,,,,,,,,,,,,321,001,,,2026-04-26_23h32.33.120,encodingtask,,2025.2.4,None,2026-04-26 23h32.33.357251 +0200,
1,56,56,0,stimuli/TESTscenes/JB_1.jpg,Jungle,Malbow,stimuli/items/jungle_animal_14.png,Jungle,animal,sc,stimuli/integrated/jungle_b_jungle_animal_14.jpg,None,0,,,,0,0,0,0,0,56,56,56,,,,,229.11839204095304,,,,,,,,,,,,,,,,,,,,,,,,229.11329133296385,229.11839204095304,231.0986142079928,231.09869441599585,231.10786199994618,231.10786199994618,232.09752170799766,232.09752170799766,232.09181929094484,None,0,232.0919540829491,232.09752170799766,233.7970087499707,233.08090995799284,,,,,,,,,,,,,,,,,,321,001,,,2026-04-26_23h32.33.120,encodingtask,,2025.2.4,None,2026-04-26 23h32.33.357251 +0200,
1,57,57,0,stimuli/TESTscenes/JA_1.jpg,Jungle,Negvi,stimuli/items/jungle_animal_17.png,Jungle,animal,sc,stimuli/integrated/jungle_a_jungle_animal_17.jpg,None,0,,,,0,0,0,0,0,57,57,57,,,,,233.7970087499707,,,,,,,,,,,,,,,,,,,,,,,,233.79169612500118,233.7970087499707,235.0985354159493,235.09862204099772,235.10800262499833,235.10800262499833,236.09842899994692,236.09842899994692,236.0919449159992,None,0,236.09208579099504,236.09842899994692,237.11798258294584,237.08109116595006,,,,,,,,,,,,,,,,,,321,001,,,2026-04-26_23h32.33.120,encodingtask,,2025.2.4,None,2026-04-26 23h32.33.357251 +0200,
1,58,58,0,stimuli/TESTscenes/JB_1.jpg,Jungle,Malbow,stimuli/items/undersea_object_35.png,Undersea,object,si,stimuli/integrated/undersea_a_undersea_object_35.jpg,None,0,,,,0,0,0,0,0,58,58,58,,,,,237.11798258294584,,,,,,,,,,,,,,,,,,,,,,,,237.11288629099727,237.11798258294584,239.09844066598453,239.098518957966,239.10811691597337,239.10811691597337,240.09752141596982,240.09752141596982,240.09176212496823,None,0,240.09189474995947,240.09752141596982,241.11924274999183,241.08064829098294,,,,,,,,,,,,,,,,,,321,001,,,2026-04-26_23h32.33.120,encodingtask,,2025.2.4,None,2026-04-26 23h32.33.357251 +0200,
1,59,59,0,stimuli/TESTscenes/UA_1.jpg,Undersea,Somar,stimuli/items/undersea_animal_38.png,Undersea,animal,sc,stimuli/integrated/undersea_b_undersea_animal_38.jpg,None,0,,,,0,0,0,0,0,59,59,59,,,,,241.11924274999183,,,,,,,,,,,,,,,,,,,,,,,,241.1136626249645,241.11924274999183,243.0974103329936,243.0975135829649,243.1080127909663,243.1080127909663,244.09881499997573,244.09881499997573,244.09218562499154,None,0,244.09240333299385,244.09881499997573,245.13070429099025,245.09137183299754,,,,,,,,,,,,,,,,,,321,001,,,2026-04-26_23h32.33.120,encodingtask,,2025.2.4,None,2026-04-26 23h32.33.357251 +0200,
1,60,60,0,stimuli/TESTscenes/UB_1.jpg,Undersea,Tulon,stimuli/items/undersea_object_17.png,Undersea,object,sc,stimuli/integrated/undersea_b_undersea_object_17.jpg,None,0,,,,0,0,0,0,0,60,60,60,,,,,245.13070429099025,,,,,,,,,,,,,,,,,,,,,,,,245.12539574998664,245.13070429099025,247.0968966249493,247.09698812494753,247.10785324999597,247.10785324999597,248.09738799999468,248.09738799999468,248.09173824999016,None,0,248.0918716249871,248.09738799999468,250.21300670795608,249.08067783300066,,,,,,,,,,,,,,,,,,321,001,,,2026-04-26_23h32.33.120,encodingtask,,2025.2.4,None,2026-04-26 23h32.33.357251 +0200,
1,61,61,0,stimuli/TESTscenes/UA_1.jpg,Undersea,Somar,stimuli/items/undersea_object_2.png,Undersea,object,sc,stimuli/integrated/undersea_a_undersea_object_2.jpg,None,0,,,,0,0,0,0,0,61,61,61,,,,,250.21300670795608,,,,,,,,,,,,,,,,,,,,,,,,250.2037219159538,250.21300670795608,251.09724999999162,251.09733504097676,251.10822324996116,251.10822324996116,252.0974282079842,252.0974282079842,252.09171895799227,None,0,252.09182962495834,252.0974282079842,254.04700620798394,253.0808245409862,,,,,,,,,,,,,,,,,,321,001,,,2026-04-26_23h32.33.120,encodingtask,,2025.2.4,None,2026-04-26 23h32.33.357251 +0200,
1,62,62,0,stimuli/TESTscenes/UB_1.jpg,Undersea,Tulon,stimuli/items/jungle_object_4.png,Jungle,object,si,stimuli/integrated/jungle_b_jungle_object_4.jpg,None,0,,,,0,0,0,0,0,62,62,62,,,,,254.04700620798394,,,,,,,,,,,,,,,,,,,,,,,,254.04174270795193,254.04700620798394,255.10805029096082,255.108122790989,255.1137192909955,255.1137192909955,,,256.09729408298153,None,0,256.0974282079842,256.1079131659935,257.1316074159695,257.09148937498685,,,,,,,,,,,,,,,,,,321,001,,,2026-04-26_23h32.33.120,encodingtask,,2025.2.4,None,2026-04-26 23h32.33.357251 +0200,
1,63,63,0,stimuli/TESTscenes/JA_1.jpg,Jungle,Negvi,stimuli/items/undersea_object_31.png,Undersea,object,si,stimuli/integrated/undersea_b_undersea_object_31.jpg,None,0,,,,0,0,0,0,0,63,63,63,,,,,257.1316074159695,,,,,,,,,,,,,,,,,,,,,,,,257.1263864999637,257.1316074159695,259.0979528329917,259.09802887495607,259.1077121659764,259.1077121659764,260.0973310409463,260.0973310409463,260.09158133296296,None,0,260.0916919159936,260.0973310409463,262.2970214159577,261.0806142499787,,,,,,,,,,,,,,,,,,321,001,,,2026-04-26_23h32.33.120,encodingtask,,2025.2.4,None,2026-04-26 23h32.33.357251 +0200,
1,64,64,0,stimuli/TESTscenes/UB_1.jpg,Undersea,Tulon,stimuli/items/jungle_animal_27.png,Jungle,animal,si,stimuli/integrated/jungle_a_jungle_animal_27.jpg,None,0,,,,0,0,0,0,0,64,64,64,,,,,262.2970214159577,,,,,,,,,,,,,,,,,,,,,,,,262.2876203749911,262.2970214159577,263.0975412079715,263.0976253330009,263.10763754096115,263.10763754096115,264.09833449998405,264.09833449998405,264.0917264999589,None,0,264.09194191597635,264.09833449998405,265.12987862498267,265.0915219579474,,,,,,,,,,,,,,,,,,321,001,,,2026-04-26_23h32.33.120,encodingtask,,2025.2.4,None,2026-04-26 23h32.33.357251 +0200,
1,65,65,0,stimuli/TESTscenes/JA_1.jpg,Jungle,Negvi,stimuli/items/jungle_animal_41.png,Jungle,animal,sc,stimuli/integrated/jungle_a_jungle_animal_41.jpg,None,0,,,,0,0,0,0,0,65,65,65,,,,,265.12987862498267,,,,,,,,,,,,,,,,,,,,,,,,265.12476758298,265.12987862498267,267.1077426249976,267.1078131249524,267.1133539999719,267.1133539999719,,,268.0970544999582,None,0,268.09717658295995,268.10754483297933,269.13084066595184,269.09158829099033,,,,,,,,,,,,,,,,,,321,001,,,2026-04-26_23h32.33.120,encodingtask,,2025.2.4,None,2026-04-26 23h32.33.357251 +0200,
1,66,66,0,stimuli/TESTscenes/UB_1.jpg,Undersea,Tulon,stimuli/items/undersea_object_4.png,Undersea,object,sc,stimuli/integrated/undersea_b_undersea_object_4.jpg,None,0,,,,0,0,0,0,0,66,66,66,,,,,269.13084066595184,,,,,,,,,,,,,,,,,,,,,,,,269.1256726249703,269.13084066595184,271.1077945409925,271.1079394159606,271.1140885829809,271.1140885829809,,,272.1075372079504,None,0,272.1076964579988,272.1133760829689,273.1329770409502,273.096541582956,,,,,,,,,,,,,,,,,,321,001,,,2026-04-26_23h32.33.120,encodingtask,,2025.2.4,None,2026-04-26 23h32.33.357251 +0200,
1,67,67,0,stimuli/TESTscenes/JB_1.jpg,Jungle,Malbow,stimuli/items/jungle_animal_25.png,Jungle,animal,sc,stimuli/integrated/jungle_b_jungle_animal_25.jpg,None,0,,,,0,0,0,0,0,67,67,67,,,,,273.1329770409502,,,,,,,,,,,,,,,,,,,,,,,,273.12774987495504,273.1329770409502,275.09775004099356,275.09783099999186,275.1075181659544,275.1075181659544,276.09675120795146,276.09675120795146,276.0912041249685,None,0,276.09131704096217,276.09675120795146,278.1813683749642,277.08052324998425,,,,,,,,,,,,,,,,,,321,001,,,2026-04-26_23h32.33.120,encodingtask,,2025.2.4,None,2026-04-26 23h32.33.357251 +0200,
1,68,68,0,stimuli/TESTscenes/JA_1.jpg,Jungle,Negvi,stimuli/items/jungle_object_28.png,Jungle,object,sc,stimuli/integrated/jungle_a_jungle_object_28.jpg,None,0,,,,0,0,0,0,0,68,68,68,,,,,278.1813683749642,,,,,,,,,,,,,,,,,,,,,,,,278.1760840409552,278.1813683749642,279.09768324997276,279.0977592909476,279.1075106249773,279.1075106249773,280.0978761249571,280.0978761249571,280.0912560829893,None,0,280.0914060409996,280.0978761249571,282.15881074999925,281.0912046659505,,,,,,,,,,,,,,,,,,321,001,,,2026-04-26_23h32.33.120,encodingtask,,2025.2.4,None,2026-04-26 23h32.33.357251 +0200,
1,69,69,0,stimuli/TESTscenes/UB_1.jpg,Undersea,Tulon,stimuli/items/undersea_object_5.png,Undersea,object,sc,stimuli/integrated/undersea_a_undersea_object_5.jpg,None,0,,,,0,0,0,0,0,69,69,69,,,,,282.15881074999925,,,,,,,,,,,,,,,,,,,,,,,,282.1536792499828,282.15881074999925,283.0983767499565,283.09845999995014,283.107623332995,283.107623332995,284.09771737497067,284.09771737497067,284.09156904096017,None,0,284.0917262909934,284.09771737497067,285.12906474998454,285.0913632909651,,,,,,,,,,,,,,,,,,321,001,,,2026-04-26_23h32.33.120,encodingtask,,2025.2.4,None,2026-04-26 23h32.33.357251 +0200,
1,70,70,0,stimuli/TESTscenes/JB_1.jpg,Jungle,Malbow,stimuli/items/undersea_animal_34.png,Undersea,animal,si,stimuli/integrated/undersea_a_undersea_animal_34.jpg,None,0,,,,0,0,0,0,0,70,70,70,,,,,285.12906474998454,,,,,,,,,,,,,,,,,,,,,,,,285.12399862497114,285.12906474998454,287.1077243749751,287.10787933296524,287.11437937495066,287.11437937495066,,,288.10749920795206,None,0,288.1076354159741,288.1129397499608,290.0444938750006,289.0968952909461,,,,,,,,,,,,,,,,,,321,001,,,2026-04-26_23h32.33.120,encodingtask,,2025.2.4,None,2026-04-26 23h32.33.357251 +0200,
1,71,71,0,stimuli/TESTscenes/JA_1.jpg,Jungle,Negvi,stimuli/items/undersea_animal_27.png,Undersea,animal,si,stimuli/integrated/undersea_a_undersea_animal_27.jpg,None,0,,,,0,0,0,0,0,71,71,71,,,,,290.0444938750006,,,,,,,,,,,,,,,,,,,,,,,,290.0393154999474,290.0444938750006,291.09726345795207,291.0973520409898,291.1074458749499,291.1074458749499,292.09765041596256,292.09765041596256,292.0914873329457,None,0,292.0916537079611,292.09765041596256,294.23798541596625,293.0910063329502,,,,,,,,,,,,,,,,,,321,001,,,2026-04-26_23h32.33.120,encodingtask,,2025.2.4,None,2026-04-26 23h32.33.357251 +0200,
1,72,72,0,stimuli/TESTscenes/JB_1.jpg,Jungle,Malbow,stimuli/items/jungle_object_7.png,Jungle,object,sc,stimuli/integrated/jungle_a_jungle_object_7.jpg,None,0,,,,0,0,0,0,0,72,72,72,,,,,294.23798541596625,,,,,,,,,,,,,,,,,,,,,,,,294.23274270794354,294.23798541596625,295.0978315829998,295.0979258749867,295.10742158297217,295.10742158297217,296.0972792909597,296.0972792909597,296.0913828749908,None,0,296.0914955409826,296.0972792909597,297.1166747909738,297.08019574999344,,,,,,,,,,,,,,,,,,321,001,,,2026-04-26_23h32.33.120,encodingtask,,2025.2.4,None,2026-04-26 23h32.33.357251 +0200,
1,73,73,0,stimuli/TESTscenes/UB_1.jpg,Undersea,Tulon,stimuli/items/undersea_animal_5.png,Undersea,animal,sc,stimuli/integrated/undersea_b_undersea_animal_5.jpg,None,0,,,,0,0,0,0,0,73,73,73,,,,,297.1166747909738,,,,,,,,,,,,,,,,,,,,,,,,297.11155849997886,297.1166747909738,299.1078717079945,299.1080274579581,299.1144902909873,299.1144902909873,,,300.10742395796115,None,0,300.10763145796955,300.1139199579484,,301.09756529098377,,,,,,,,,,,,,,,,,,321,001,,,2026-04-26_23h32.33.120,encodingtask,,2025.2.4,None,2026-04-26 23h32.33.357251 +0200,
1,74,74,0,stimuli/TESTscenes/JB_1.jpg,Jungle,Malbow,stimuli/items/undersea_object_22.png,Undersea,object,si,stimuli/integrated/undersea_b_undersea_object_22.jpg,None,0,,,,0,0,0,0,0,74,74,74,,,,,301.13603670796147,,,,,,,,,,,,,,,,,,,,,,,,301.13053374999436,301.13603670796147,303.10733537498163,303.1074158749543,303.1128784159664,303.1128784159664,304.10744687495753,304.10744687495753,304.09661629097536,None,0,304.0967173749814,304.10744687495753,305.12823004095117,305.0912813329487,,,,,,,,,,,,,,,,,,321,001,,,2026-04-26_23h32.33.120,encodingtask,,2025.2.4,None,2026-04-26 23h32.33.357251 +0200,
1,75,75,0,stimuli/TESTscenes/UA_1.jpg,Undersea,Somar,stimuli/items/jungle_animal_21.png,Jungle,animal,si,stimuli/integrated/jungle_a_jungle_animal_21.jpg,None,0,,,,0,0,0,0,0,75,75,75,,,,,305.12823004095117,,,,,,,,,,,,,,,,,,,,,,,,305.12312833295437,305.12823004095117,307.1072086659842,307.1072714579641,307.11235170799773,307.11235170799773,308.10729920800077,308.10729920800077,308.09629745798884,None,0,308.0963952909806,308.10729920800077,310.1583095829701,309.09130608296255,,,,,,,,,,,,,,,,,,321,001,,,2026-04-26_23h32.33.120,encodingtask,,2025.2.4,None,2026-04-26 23h32.33.357251 +0200,
1,76,76,0,stimuli/TESTscenes/JB_1.jpg,Jungle,Malbow,stimuli/items/jungle_animal_16.png,Jungle,animal,sc,stimuli/integrated/jungle_b_jungle_animal_16.jpg,None,0,,,,0,0,0,0,0,76,76,76,,,,,310.1583095829701,,,,,,,,,,,,,,,,,,,,,,,,310.1530347910011,310.1583095829701,311.10744241595967,311.1076028329553,311.11357479100116,311.11357479100116,312.1071280829492,312.1071280829492,312.0965994579601,None,0,312.096714040963,312.1071280829492,314.29128983296687,313.09092883300036,,,,,,,,,,,,,,,,,,321,001,,,2026-04-26_23h32.33.120,encodingtask,,2025.2.4,None,2026-04-26 23h32.33.357251 +0200,
1,77,77,0,stimuli/TESTscenes/UB_1.jpg,Undersea,Tulon,stimuli/items/jungle_object_13.png,Jungle,object,si,stimuli/integrated/jungle_a_jungle_object_13.jpg,None,0,,,,0,0,0,0,0,77,77,77,,,,,314.29128983296687,,,,,,,,,,,,,,,,,,,,,,,,314.2860849579447,314.29128983296687,315.1073269159533,315.10748412495013,315.113932749955,315.113932749955,316.107147957955,316.107147957955,316.096975457971,None,0,316.0970654999837,316.107147957955,317.1295096249669,317.09080766595434,,,,,,,,,,,,,,,,,,321,001,,,2026-04-26_23h32.33.120,encodingtask,,2025.2.4,None,2026-04-26 23h32.33.357251 +0200,
1,78,78,0,stimuli/TESTscenes/JA_1.jpg,Jungle,Negvi,stimuli/items/jungle_object_31.png,Jungle,object,sc,stimuli/integrated/jungle_a_jungle_object_31.jpg,None,0,,,,0,0,0,0,0,78,78,78,,,,,317.1295096249669,,,,,,,,,,,,,,,,,,,,,,,,317.12415437499294,317.1295096249669,319.1076525829849,319.10777120798593,319.1136912079528,319.1136912079528,320.1070667079766,320.1070667079766,320.09674516599625,None,0,320.09684887499316,320.1070667079766,321.12510899995686,321.09090237499913,,,,,,,,,,,,,,,,,,321,001,,,2026-04-26_23h32.33.120,encodingtask,,2025.2.4,None,2026-04-26 23h32.33.357251 +0200,
1,79,79,0,stimuli/TESTscenes/UA_1.jpg,Undersea,Somar,stimuli/items/jungle_animal_45.png,Jungle,animal,si,stimuli/integrated/jungle_b_jungle_animal_45.jpg,None,0,,,,0,0,0,0,0,79,79,79,,,,,321.12510899995686,,,,,,,,,,,,,,,,,,,,,,,,321.1201537499437,321.12510899995686,323.1076136659831,323.1077074999921,323.1130571249523,323.1130571249523,324.10726579098264,324.10726579098264,324.0968267079443,None,0,324.096931249951,324.10726579098264,325.1351451659575,325.0910230829613,,,,,,,,,,,,,,,,,,321,001,,,2026-04-26_23h32.33.120,encodingtask,,2025.2.4,None,2026-04-26 23h32.33.357251 +0200,
1,0,0,0,,,,,,,,,,,space,3.5948457079939544,None,0,0,0,0,,,,,0,0,0,0,325.1351451659575,,,,,,,,,,,,,,,,,,,,,,,,,,,,,,,,,,,,,,,325.1120865409612,325.11216529097874,325.12797820795095,325.1351451659575,325.1351451659575,325.1351451659575,328.74406029097736,space,3.5948457079939544,None,,,,,,,,321,001,,,2026-04-26_23h32.33.120,encodingtask,,2025.2.4,None,2026-04-26 23h32.33.357251 +0200,
1,0,0,0,,,,,,,,,,,,,,0,0,0,0,,,,,,,,,,,,,,,,,,,,,,,,,,,,,,,,,,,,,,,,,,,,,,,,,,,,,,,,,,,,,,,,,321,001,,,2026-04-26_23h32.33.120,encodingtask,,2025.2.4,None,2026-04-26 23h32.33.357251 +0200,
2,0,0,0,stimuli/TESTscenes/JA_1.jpg,Jungle,Negvi,stimuli/items/undersea_object_36.png,Undersea,object,si,stimuli/integrated/undersea_b_undersea_object_36.jpg,None,0,,,,0,1,1,1,0,0,0,0,,,,,328.8084624159965,,,,,,,,,,,,,,,,,,,,,,328.7467297909898,328.7468084159773,328.791650457948,328.8084624159965,330.7573215829907,330.7574253749917,330.76383720798185,330.76383720798185,,,331.74704266595654,None,0,331.7471734159626,331.7572109999601,332.7819097499596,332.7408004999743,,,,,,,,,,,,,,,,,,321,001,,,2026-04-26_23h32.33.120,encodingtask,,2025.2.4,None,2026-04-26 23h32.33.357251 +0200,
2,1,1,0,stimuli/TESTscenes/JB_1.jpg,Jungle,Malbow,stimuli/items/undersea_object_33.png,Undersea,object,si,stimuli/integrated/undersea_a_undersea_object_33.jpg,None,0,,,,0,1,1,1,0,1,1,1,,,,,332.7819097499596,,,,,,,,,,,,,,,,,,,,,,,,332.7768012499437,332.7819097499596,334.7573031249922,334.7574347499758,334.76309841597686,334.76309841597686,335.7569776659948,335.7569776659948,335.74592995794956,None,0,335.7460210409481,335.7569776659948,336.7793622079771,336.7406922909431,,,,,,,,,,,,,,,,,,321,001,,,2026-04-26_23h32.33.120,encodingtask,,2025.2.4,None,2026-04-26 23h32.33.357251 +0200,
2,2,2,0,stimuli/TESTscenes/JA_1.jpg,Jungle,Negvi,stimuli/items/undersea_animal_22.png,Undersea,animal,si,stimuli/integrated/undersea_a_undersea_animal_22.jpg,None,0,,,,0,1,1,1,0,2,2,2,,,,,336.7793622079771,,,,,,,,,,,,,,,,,,,,,,,,336.7741132909432,336.7793622079771,338.75715649995254,338.7572680829908,338.7634961659787,338.7634961659787,339.7570630829432,339.7570630829432,339.7468316659797,None,0,339.7469294159673,339.7570630829432,340.78096595796524,340.7406431249692,,,,,,,,,,,,,,,,,,321,001,,,2026-04-26_23h32.33.120,encodingtask,,2025.2.4,None,2026-04-26 23h32.33.357251 +0200,
2,3,3,0,stimuli/TESTscenes/UA_1.jpg,Undersea,Somar,stimuli/items/undersea_object_24.png,Undersea,object,sc,stimuli/integrated/undersea_b_undersea_object_24.jpg,None,0,,,,0,1,1,1,0,3,3,3,,,,,340.78096595796524,,,,,,,,,,,,,,,,,,,,,,,,340.7757205829839,340.78096595796524,342.757080249954,342.7571919159964,342.76352091599256,342.76352091599256,,,343.7570332909818,None,0,343.75729120796314,343.76377604098525,,344.75697708298685,,,,,,,,,,,,,,,,,,321,001,,,2026-04-26_23h32.33.120,encodingtask,,2025.2.4,None,2026-04-26 23h32.33.357251 +0200,
2,4,4,0,stimuli/TESTscenes/UB_1.jpg,Undersea,Tulon,stimuli/items/jungle_animal_13.png,Jungle,animal,si,stimuli/integrated/jungle_a_jungle_animal_13.jpg,None,0,,,,0,1,1,1,0,4,4,4,,,,,344.7942938749911,,,,,,,,,,,,,,,,,,,,,,,,344.7890423749923,344.7942938749911,346.75722891598707,346.7573293749592,346.7632737499662,346.7632737499662,,,347.7569612909574,None,0,347.75712829094846,347.7626020409516,348.78302266600076,348.7465560409473,,,,,,,,,,,,,,,,,,321,001,,,2026-04-26_23h32.33.120,encodingtask,,2025.2.4,None,2026-04-26 23h32.33.357251 +0200,
2,5,5,0,stimuli/TESTscenes/UA_1.jpg,Undersea,Somar,stimuli/items/jungle_object_25.png,Jungle,object,si,stimuli/integrated/jungle_b_jungle_object_25.jpg,None,0,,,,0,1,1,1,0,5,5,5,,,,,348.78302266600076,,,,,,,,,,,,,,,,,,,,,,,,348.7777852079598,348.78302266600076,350.7572147079627,350.75732316594804,350.763706290978,350.763706290978,,,351.75711904099444,None,0,351.75725791597506,351.7625766659621,352.7822339159902,352.74615970795276,,,,,,,,,,,,,,,,,,321,001,,,2026-04-26_23h32.33.120,encodingtask,,2025.2.4,None,2026-04-26 23h32.33.357251 +0200,
2,6,6,0,stimuli/TESTscenes/JA_1.jpg,Jungle,Negvi,stimuli/items/undersea_object_28.png,Undersea,object,si,stimuli/integrated/undersea_b_undersea_object_28.jpg,None,0,,,,0,1,1,1,0,6,6,6,,,,,352.7822339159902,,,,,,,,,,,,,,,,,,,,,,,,352.77703004097566,352.7822339159902,354.74715262500104,354.7472238749615,354.75673687498784,354.75673687498784,355.7468924999703,355.7468924999703,355.7407652499969,None,0,355.7409280829597,355.7468924999703,356.7667196659604,356.73021833295934,,,,,,,,,,,,,,,,,,321,001,,,2026-04-26_23h32.33.120,encodingtask,,2025.2.4,None,2026-04-26 23h32.33.357251 +0200,
2,7,7,0,stimuli/TESTscenes/JB_1.jpg,Jungle,Malbow,stimuli/items/undersea_object_15.png,Undersea,object,si,stimuli/integrated/undersea_b_undersea_object_15.jpg,None,0,,,,0,1,1,1,0,7,7,7,,,,,356.7667196659604,,,,,,,,,,,,,,,,,,,,,,,,356.76155104098143,356.7667196659604,358.7571285829763,358.75729458295973,358.7631914159865,358.7631914159865,359.75676791596925,359.75676791596925,359.746452124964,None,0,359.74654587497935,359.75676791596925,360.77941266598646,360.74079758295557,,,,,,,,,,,,,,,,,,321,001,,,2026-04-26_23h32.33.120,encodingtask,,2025.2.4,None,2026-04-26 23h32.33.357251 +0200,
2,8,8,0,stimuli/TESTscenes/UA_1.jpg,Undersea,Somar,stimuli/items/undersea_animal_7.png,Undersea,animal,sc,stimuli/integrated/undersea_b_undersea_animal_7.jpg,None,0,,,,0,1,1,1,0,8,8,8,,,,,360.77941266598646,,,,,,,,,,,,,,,,,,,,,,,,360.77389012498315,360.77941266598646,362.7569102909765,362.7569785829983,362.7616375829675,362.7616375829675,363.75690333294915,363.75690333294915,363.74615466594696,None,0,363.74626345798606,363.75690333294915,364.7792254159576,364.7405734579661,,,,,,,,,,,,,,,,,,321,001,,,2026-04-26_23h32.33.120,encodingtask,,2025.2.4,None,2026-04-26 23h32.33.357251 +0200,
2,9,9,0,stimuli/TESTscenes/JB_1.jpg,Jungle,Malbow,stimuli/items/jungle_animal_4.png,Jungle,animal,sc,stimuli/integrated/jungle_b_jungle_animal_4.jpg,None,0,,,,0,1,1,1,0,9,9,9,,,,,364.7792254159576,,,,,,,,,,,,,,,,,,,,,,,,364.7739049999509,364.7792254159576,366.75677254097536,366.7568899579928,366.7630336249713,366.7630336249713,367.75681754096877,367.75681754096877,367.7464577079518,None,0,367.74658995796926,367.75681754096877,368.7778570409864,368.74044420797145,,,,,,,,,,,,,,,,,,321,001,,,2026-04-26_23h32.33.120,encodingtask,,2025.2.4,None,2026-04-26 23h32.33.357251 +0200,
2,10,10,0,stimuli/TESTscenes/UB_1.jpg,Undersea,Tulon,stimuli/items/jungle_object_8.png,Jungle,object,si,stimuli/integrated/jungle_a_jungle_object_8.jpg,None,0,,,,0,1,1,1,0,10,10,10,,,,,368.7778570409864,,,,,,,,,,,,,,,,,,,,,,,,368.77265991596505,368.7778570409864,370.75674662494566,370.7568352909875,370.76332504098536,370.76332504098536,371.7569475409691,371.7569475409691,371.74672245798865,None,0,371.7468119159457,371.7569475409691,372.7796836659545,372.7404292909778,,,,,,,,,,,,,,,,,,321,001,,,2026-04-26_23h32.33.120,encodingtask,,2025.2.4,None,2026-04-26 23h32.33.357251 +0200,
2,11,11,0,stimuli/TESTscenes/JB_1.jpg,Jungle,Malbow,stimuli/items/undersea_animal_17.png,Undersea,animal,si,stimuli/integrated/undersea_a_undersea_animal_17.jpg,None,0,,,,0,1,1,1,0,11,11,11,,,,,372.7796836659545,,,,,,,,,,,,,,,,,,,,,,,,372.7745236659539,372.7796836659545,374.7569249999942,374.7570831659832,374.76328195794486,374.76328195794486,375.7566829159623,375.7566829159623,375.74637562496355,None,0,375.74648199998774,375.7566829159623,376.77833670796826,376.7407554999809,,,,,,,,,,,,,,,,,,321,001,,,2026-04-26_23h32.33.120,encodingtask,,2025.2.4,None,2026-04-26 23h32.33.357251 +0200,
2,12,12,0,stimuli/TESTscenes/UB_1.jpg,Undersea,Tulon,stimuli/items/jungle_animal_18.png,Jungle,animal,si,stimuli/integrated/jungle_b_jungle_animal_18.jpg,None,0,,,,0,1,1,1,0,12,12,12,,,,,376.77833670796826,,,,,,,,,,,,,,,,,,,,,,,,376.7731689999928,376.77833670796826,378.7570572909899,378.75719791598385,378.7630278329598,378.7630278329598,,,379.7568949579727,None,0,379.7570262499503,379.76240162499016,380.78157066594576,380.7453984999447,,,,,,,,,,,,,,,,,,321,001,,,2026-04-26_23h32.33.120,encodingtask,,2025.2.4,None,2026-04-26 23h32.33.357251 +0200,
2,13,13,0,stimuli/TESTscenes/JB_1.jpg,Jungle,Malbow,stimuli/items/jungle_object_1.png,Jungle,object,sc,stimuli/integrated/jungle_b_jungle_object_1.jpg,None,0,,,,0,1,1,1,0,13,13,13,,,,,380.78157066594576,,,,,,,,,,,,,,,,,,,,,,,,380.77655374997994,380.78157066594576,382.7569987909519,382.75712679099524,382.76296312495833,382.76296312495833,,,383.75681629095925,None,0,383.75697324995417,383.76262237498304,384.7831387909828,384.7465625409968,,,,,,,,,,,,,,,,,,321,001,,,2026-04-26_23h32.33.120,encodingtask,,2025.2.4,None,2026-04-26 23h32.33.357251 +0200,
2,14,14,0,stimuli/TESTscenes/UB_1.jpg,Undersea,Tulon,stimuli/items/undersea_object_7.png,Undersea,object,sc,stimuli/integrated/undersea_a_undersea_object_7.jpg,None,0,,,,0,1,1,1,0,14,14,14,,,,,384.7831387909828,,,,,,,,,,,,,,,,,,,,,,,,384.7779356659739,384.7831387909828,386.75676166597987,386.7568427909864,386.76257529098075,386.76257529098075,387.75661699997727,387.75661699997727,387.74658266594633,None,0,387.74672341597034,387.75661699997727,388.7786422909703,388.74039920797804,,,,,,,,,,,,,,,,,,321,001,,,2026-04-26_23h32.33.120,encodingtask,,2025.2.4,None,2026-04-26 23h32.33.357251 +0200,
2,15,15,0,stimuli/TESTscenes/JB_1.jpg,Jungle,Malbow,stimuli/items/undersea_animal_11.png,Undersea,animal,si,stimuli/integrated/undersea_a_undersea_animal_11.jpg,None,0,,,,0,1,1,1,0,15,15,15,,,,,388.7786422909703,,,,,,,,,,,,,,,,,,,,,,,,388.7734440829954,388.7786422909703,390.7567271249718,390.7568016659934,390.7622944159666,390.7622944159666,,,391.7567640829948,None,0,391.75692995794816,391.762225457991,392.7837982499623,392.74656429095194,,,,,,,,,,,,,,,,,,321,001,,,2026-04-26_23h32.33.120,encodingtask,,2025.2.4,None,2026-04-26 23h32.33.357251 +0200,
2,16,16,0,stimuli/TESTscenes/UA_1.jpg,Undersea,Somar,stimuli/items/undersea_object_25.png,Undersea,object,sc,stimuli/integrated/undersea_b_undersea_object_25.jpg,None,0,,,,0,1,1,1,0,16,16,16,,,,,392.7837982499623,,,,,,,,,,,,,,,,,,,,,,,,392.7786011249991,392.7837982499623,394.75669483299134,394.75677412498044,394.76222533296095,394.76222533296095,395.7565566659905,395.7565566659905,395.7453413749463,None,0,395.74544233299093,395.7565566659905,396.77807187498547,396.74033633299405,,,,,,,,,,,,,,,,,,321,001,,,2026-04-26_23h32.33.120,encodingtask,,2025.2.4,None,2026-04-26 23h32.33.357251 +0200,
2,17,17,0,stimuli/TESTscenes/UB_1.jpg,Undersea,Tulon,stimuli/items/undersea_animal_25.png,Undersea,animal,sc,stimuli/integrated/undersea_a_undersea_animal_25.jpg,None,0,,,,0,1,1,1,0,17,17,17,,,,,396.77807187498547,,,,,,,,,,,,,,,,,,,,,,,,396.772878082993,396.77807187498547,398.75676137499977,398.756916290964,398.76285416597966,398.76285416597966,399.75645591598004,399.75645591598004,399.7455954999896,None,0,399.74569824995706,399.75645591598004,400.7771292499965,400.7401291659917,,,,,,,,,,,,,,,,,,321,001,,,2026-04-26_23h32.33.120,encodingtask,,2025.2.4,None,2026-04-26 23h32.33.357251 +0200,
2,18,18,0,stimuli/TESTscenes/UA_1.jpg,Undersea,Somar,stimuli/items/undersea_animal_6.png,Undersea,animal,sc,stimuli/integrated/undersea_a_undersea_animal_6.jpg,None,0,,,,0,1,1,1,0,18,18,18,,,,,400.7771292499965,,,,,,,,,,,,,,,,,,,,,,,,400.772010124987,400.7771292499965,402.756506332953,402.7566176659893,402.76214595796773,402.76214595796773,403.75634387496393,403.75634387496393,403.7463814159855,None,0,403.7464815409621,403.75634387496393,404.7781538749696,404.74052687495714,,,,,,,,,,,,,,,,,,321,001,,,2026-04-26_23h32.33.120,encodingtask,,2025.2.4,None,2026-04-26 23h32.33.357251 +0200,
2,19,19,0,stimuli/TESTscenes/JA_1.jpg,Jungle,Negvi,stimuli/items/undersea_animal_3.png,Undersea,animal,si,stimuli/integrated/undersea_a_undersea_animal_3.jpg,None,0,,,,0,1,1,1,0,19,19,19,,,,,404.7781538749696,,,,,,,,,,,,,,,,,,,,,,,,404.7729509579949,404.7781538749696,406.7566377079929,406.7567155409488,406.762406832946,406.762406832946,407.75645124999573,407.75645124999573,407.74641679099295,None,0,407.74652074999176,407.75645124999573,408.77725924999686,408.7401432909537,,,,,,,,,,,,,,,,,,321,001,,,2026-04-26_23h32.33.120,encodingtask,,2025.2.4,None,2026-04-26 23h32.33.357251 +0200,
2,20,20,0,stimuli/TESTscenes/JB_1.jpg,Jungle,Malbow,stimuli/items/jungle_animal_11.png,Jungle,animal,sc,stimuli/integrated/jungle_b_jungle_animal_11.jpg,None,0,,,,0,1,1,1,0,20,20,20,,,,,408.77725924999686,,,,,,,,,,,,,,,,,,,,,,,,408.772071165964,408.77725924999686,410.7566688749939,410.75679949996993,410.7628106659977,410.7628106659977,411.75655579095474,411.75655579095474,411.74582445796113,None,0,411.74592412495986,411.75655579095474,412.7787212909898,412.7400542909745,,,,,,,,,,,,,,,,,,321,001,,,2026-04-26_23h32.33.120,encodingtask,,2025.2.4,None,2026-04-26 23h32.33.357251 +0200,
2,21,21,0,stimuli/TESTscenes/UA_1.jpg,Undersea,Somar,stimuli/items/jungle_object_24.png,Jungle,object,si,stimuli/integrated/jungle_a_jungle_object_24.jpg,None,0,,,,0,1,1,1,0,21,21,21,,,,,412.7787212909898,,,,,,,,,,,,,,,,,,,,,,,,412.77352837496437,412.7787212909898,414.7567815829534,414.7569164579618,414.763407915947,414.763407915947,415.7564383329591,415.7564383329591,415.74642620794475,None,0,415.74650862498675,415.7564383329591,416.7782729579485,416.7402139159967,,,,,,,,,,,,,,,,,,321,001,,,2026-04-26_23h32.33.120,encodingtask,,2025.2.4,None,2026-04-26 23h32.33.357251 +0200,
2,22,22,0,stimuli/TESTscenes/JA_1.jpg,Jungle,Negvi,stimuli/items/undersea_object_37.png,Undersea,object,si,stimuli/integrated/undersea_b_undersea_object_37.jpg,None,0,,,,0,1,1,1,0,22,22,22,,,,,416.7782729579485,,,,,,,,,,,,,,,,,,,,,,,,416.7731974159833,416.7782729579485,418.756608332973,418.75672870798735,418.76248266594484,418.76248266594484,419.75625562499044,419.75625562499044,419.7459179579746,None,0,419.74602112499997,419.75625562499044,420.7778748329729,420.7403195829829,,,,,,,,,,,,,,,,,,321,001,,,2026-04-26_23h32.33.120,encodingtask,,2025.2.4,None,2026-04-26 23h32.33.357251 +0200,
2,23,23,0,stimuli/TESTscenes/UA_1.jpg,Undersea,Somar,stimuli/items/undersea_object_3.png,Undersea,object,sc,stimuli/integrated/undersea_b_undersea_object_3.jpg,None,0,,,,0,1,1,1,0,23,23,23,,,,,420.7778748329729,,,,,,,,,,,,,,,,,,,,,,,,420.77278079098323,420.7778748329729,422.7564546659705,422.7565323749441,422.7623071659473,422.7623071659473,423.75674083299236,423.75674083299236,423.7458502079826,None,0,423.7459641659516,423.75674083299236,424.77856454096036,424.74004716594936,,,,,,,,,,,,,,,,,,321,001,,,2026-04-26_23h32.33.120,encodingtask,,2025.2.4,None,2026-04-26 23h32.33.357251 +0200,
2,24,24,0,stimuli/TESTscenes/JB_1.jpg,Jungle,Malbow,stimuli/items/jungle_object_21.png,Jungle,object,sc,stimuli/integrated/jungle_a_jungle_object_21.jpg,None,0,,,,0,1,1,1,0,24,24,24,,,,,424.77856454096036,,,,,,,,,,,,,,,,,,,,,,,,424.77319604094373,424.77856454096036,426.7565518329502,426.756716999982,426.7631443749997,426.7631443749997,,,427.7565205829451,None,0,427.75667599996086,427.7622049159836,428.7819762909785,428.7458499579807,,,,,,,,,,,,,,,,,,321,001,,,2026-04-26_23h32.33.120,encodingtask,,2025.2.4,None,2026-04-26 23h32.33.357251 +0200,
2,25,25,0,stimuli/TESTscenes/UA_1.jpg,Undersea,Somar,stimuli/items/jungle_object_15.png,Jungle,object,si,stimuli/integrated/jungle_a_jungle_object_15.jpg,None,0,,,,0,1,1,1,0,25,25,25,,,,,428.7819762909785,,,,,,,,,,,,,,,,,,,,,,,,428.7767771660001,428.7819762909785,430.75667870795587,430.7568279579864,430.7626506659435,430.7626506659435,,,431.75644983298844,None,0,431.7566453749896,431.7628970829537,432.78371741599403,432.7457812499488,,,,,,,,,,,,,,,,,,321,001,,,2026-04-26_23h32.33.120,encodingtask,,2025.2.4,None,2026-04-26 23h32.33.357251 +0200,
2,26,26,0,stimuli/TESTscenes/JA_1.jpg,Jungle,Negvi,stimuli/items/jungle_object_39.png,Jungle,object,sc,stimuli/integrated/jungle_a_jungle_object_39.jpg,None,0,,,,0,1,1,1,0,26,26,26,,,,,432.78371741599403,,,,,,,,,,,,,,,,,,,,,,,,432.7780918329954,432.78371741599403,434.7563762499485,434.75650545797544,434.7628699579509,434.7628699579509,,,435.7564674159512,None,0,435.7566414999892,435.76243520795833,436.78483662498184,436.7451375829987,,,,,,,,,,,,,,,,,,321,001,,,2026-04-26_23h32.33.120,encodingtask,,2025.2.4,None,2026-04-26 23h32.33.357251 +0200,
2,27,27,0,stimuli/TESTscenes/UA_1.jpg,Undersea,Somar,stimuli/items/undersea_animal_40.png,Undersea,animal,sc,stimuli/integrated/undersea_b_undersea_animal_40.jpg,None,0,,,,0,1,1,1,0,27,27,27,,,,,436.78483662498184,,,,,,,,,,,,,,,,,,,,,,,,436.779756874952,436.78483662498184,438.7565854159766,438.75671691598836,438.7630912909517,438.7630912909517,,,439.7553382079932,None,0,439.7554503749707,439.7598472079844,440.78576879098546,440.7466986659565,,,,,,,,,,,,,,,,,,321,001,,,2026-04-26_23h32.33.120,encodingtask,,2025.2.4,None,2026-04-26 23h32.33.357251 +0200,
2,28,28,0,stimuli/TESTscenes/JA_1.jpg,Jungle,Negvi,stimuli/items/jungle_object_5.png,Jungle,object,sc,stimuli/integrated/jungle_b_jungle_object_5.jpg,None,0,,,,0,1,1,1,0,28,28,28,,,,,440.78576879098546,,,,,,,,,,,,,,,,,,,,,,,,440.78033266594866,440.78576879098546,442.7564559999737,442.75654774997383,442.7621974159847,442.7621974159847,443.75631899997825,443.75631899997825,443.74587933300063,None,0,443.7459811659646,443.75631899997825,444.778814624995,444.73973079095595,,,,,,,,,,,,,,,,,,321,001,,,2026-04-26_23h32.33.120,encodingtask,,2025.2.4,None,2026-04-26 23h32.33.357251 +0200,
2,29,29,0,stimuli/TESTscenes/UA_1.jpg,Undersea,Somar,stimuli/items/undersea_animal_2.png,Undersea,animal,sc,stimuli/integrated/undersea_b_undersea_animal_2.jpg,None,0,,,,0,1,1,1,0,29,29,29,,,,,444.778814624995,,,,,,,,,,,,,,,,,,,,,,,,444.773621915956,444.778814624995,446.7562507499824,446.7563632079982,446.7618774579605,446.7618774579605,447.7562291249633,447.7562291249633,447.74523508298444,None,0,447.7453319999622,447.7562291249633,448.77747279097093,448.7399644579855,,,,,,,,,,,,,,,,,,321,001,,,2026-04-26_23h32.33.120,encodingtask,,2025.2.4,None,2026-04-26 23h32.33.357251 +0200,
2,30,30,0,stimuli/TESTscenes/UB_1.jpg,Undersea,Tulon,stimuli/items/undersea_animal_10.png,Undersea,animal,sc,stimuli/integrated/undersea_a_undersea_animal_10.jpg,None,0,,,,0,1,1,1,0,30,30,30,,,,,448.77747279097093,,,,,,,,,,,,,,,,,,,,,,,,448.77242574997945,448.77747279097093,450.7561121659819,450.7562021249905,450.76156624994474,450.76156624994474,451.75606804096606,451.75606804096606,451.74433529097587,None,0,451.7444308749982,451.75606804096606,452.77742708299775,452.7398692079587,,,,,,,,,,,,,,,,,,321,001,,,2026-04-26_23h32.33.120,encodingtask,,2025.2.4,None,2026-04-26 23h32.33.357251 +0200,
2,31,31,0,stimuli/TESTscenes/UA_1.jpg,Undersea,Somar,stimuli/items/jungle_animal_29.png,Jungle,animal,si,stimuli/integrated/jungle_b_jungle_animal_29.jpg,None,0,,,,0,1,1,1,0,31,31,31,,,,,452.77742708299775,,,,,,,,,,,,,,,,,,,,,,,,452.772224040993,452.77742708299775,454.7562654579524,454.75634416594403,454.7617611249443,454.7617611249443,455.7560983749572,455.7560983749572,455.74482149997493,None,0,455.74492916598683,455.7560983749572,456.77768058294896,456.74005145794945,,,,,,,,,,,,,,,,,,321,001,,,2026-04-26_23h32.33.120,encodingtask,,2025.2.4,None,2026-04-26 23h32.33.357251 +0200,
2,32,32,0,stimuli/TESTscenes/JA_1.jpg,Jungle,Negvi,stimuli/items/jungle_animal_28.png,Jungle,animal,sc,stimuli/integrated/jungle_a_jungle_animal_28.jpg,None,0,,,,0,1,1,1,0,32,32,32,,,,,456.77768058294896,,,,,,,,,,,,,,,,,,,,,,,,456.7725056249765,456.77768058294896,458.7562746249605,458.7563479579985,458.7622074999963,458.7622074999963,459.7561047079507,459.7561047079507,459.7460362499696,None,0,459.7461407499504,459.7561047079507,460.7764821249875,460.73979774996405,,,,,,,,,,,,,,,,,,321,001,,,2026-04-26_23h32.33.120,encodingtask,,2025.2.4,None,2026-04-26 23h32.33.357251 +0200,
2,33,33,0,stimuli/TESTscenes/UA_1.jpg,Undersea,Somar,stimuli/items/undersea_object_20.png,Undersea,object,sc,stimuli/integrated/undersea_b_undersea_object_20.jpg,None,0,,,,0,1,1,1,0,33,33,33,,,,,460.7764821249875,,,,,,,,,,,,,,,,,,,,,,,,460.77145291597117,460.7764821249875,462.7564257499762,462.7565738329431,462.76265679096105,462.76265679096105,,,463.75643708294956,None,0,463.7566141659627,463.7625179999741,464.78138512495207,464.7453317079926,,,,,,,,,,,,,,,,,,321,001,,,2026-04-26_23h32.33.120,encodingtask,,2025.2.4,None,2026-04-26 23h32.33.357251 +0200,
2,34,34,0,stimuli/TESTscenes/JB_1.jpg,Jungle,Malbow,stimuli/items/jungle_object_3.png,Jungle,object,sc,stimuli/integrated/jungle_a_jungle_object_3.jpg,None,0,,,,0,1,1,1,0,34,34,34,,,,,464.78138512495207,,,,,,,,,,,,,,,,,,,,,,,,464.77640866598813,464.78138512495207,466.756133457995,466.75621070800116,466.76178541599074,466.76178541599074,467.7560499999672,467.7560499999672,467.7459721659543,None,0,467.74607983295573,467.7560499999672,468.77615720796166,468.7395026249578,,,,,,,,,,,,,,,,,,321,001,,,2026-04-26_23h32.33.120,encodingtask,,2025.2.4,None,2026-04-26 23h32.33.357251 +0200,
2,35,35,0,stimuli/TESTscenes/UA_1.jpg,Undersea,Somar,stimuli/items/jungle_animal_36.png,Jungle,animal,si,stimuli/integrated/jungle_b_jungle_animal_36.jpg,None,0,,,,0,1,1,1,0,35,35,35,,,,,468.77615720796166,,,,,,,,,,,,,,,,,,,,,,,,468.77110770798754,468.77615720796166,470.75601529097185,470.756147957989,470.7623308329494,470.7623308329494,471.7557360829669,471.7557360829669,471.74549737497,None,0,471.7455935829785,471.7557360829669,472.7770443749614,472.7398682909552,,,,,,,,,,,,,,,,,,321,001,,,2026-04-26_23h32.33.120,encodingtask,,2025.2.4,None,2026-04-26 23h32.33.357251 +0200,
2,36,36,0,stimuli/TESTscenes/JB_1.jpg,Jungle,Malbow,stimuli/items/undersea_object_1.png,Undersea,object,si,stimuli/integrated/undersea_b_undersea_object_1.jpg,None,0,,,,0,1,1,1,0,36,36,36,,,,,472.7770443749614,,,,,,,,,,,,,,,,,,,,,,,,472.7718699579709,472.7770443749614,474.75597674999153,474.7561344159767,474.7625577909639,474.7625577909639,,,475.7560887079453,None,0,475.7562405829667,475.76192512497073,476.7818101249868,476.74597662495216,,,,,,,,,,,,,,,,,,321,001,,,2026-04-26_23h32.33.120,encodingtask,,2025.2.4,None,2026-04-26 23h32.33.357251 +0200,
2,37,37,0,stimuli/TESTscenes/UA_1.jpg,Undersea,Somar,stimuli/items/jungle_object_2.png,Jungle,object,si,stimuli/integrated/jungle_a_jungle_object_2.jpg,None,0,,,,0,1,1,1,0,37,37,37,,,,,476.7818101249868,,,,,,,,,,,,,,,,,,,,,,,,476.7768115409999,476.7818101249868,478.75594279094366,478.7560499999672,478.7618605409516,478.7618605409516,479.75571029097773,479.75571029097773,479.7453425829881,None,0,479.74544308299664,479.75571029097773,480.7797153329593,480.73957770795096,,,,,,,,,,,,,,,,,,321,001,,,2026-04-26_23h32.33.120,encodingtask,,2025.2.4,None,2026-04-26 23h32.33.357251 +0200,
2,38,38,0,stimuli/TESTscenes/UB_1.jpg,Undersea,Tulon,stimuli/items/jungle_animal_3.png,Jungle,animal,si,stimuli/integrated/jungle_a_jungle_animal_3.jpg,None,0,,,,0,1,1,1,0,38,38,38,,,,,480.7797153329593,,,,,,,,,,,,,,,,,,,,,,,,480.77411524998024,480.7797153329593,482.75676012499025,482.756942582957,482.7729402499972,482.7729402499972,,,483.75506466598017,None,0,483.75527712499024,483.76106304099085,484.77492299996084,484.7438990409719,,,,,,,,,,,,,,,,,,321,001,,,2026-04-26_23h32.33.120,encodingtask,,2025.2.4,None,2026-04-26 23h32.33.357251 +0200,
2,39,39,0,stimuli/TESTscenes/UA_1.jpg,Undersea,Somar,stimuli/items/jungle_animal_42.png,Jungle,animal,si,stimuli/integrated/jungle_b_jungle_animal_42.jpg,None,0,,,,0,1,1,1,0,39,39,39,,,,,484.77492299996084,,,,,,,,,,,,,,,,,,,,,,,,484.7701862079557,484.77492299996084,486.75736037496245,486.75742249999894,486.7636797079467,486.7636797079467,,,487.75569291599095,None,0,487.7559145409614,487.7606401659432,488.7853291249485,488.7438311659498,,,,,,,,,,,,,,,,,,321,001,,,2026-04-26_23h32.33.120,encodingtask,,2025.2.4,None,2026-04-26 23h32.33.357251 +0200,
2,40,40,0,stimuli/TESTscenes/UB_1.jpg,Undersea,Tulon,stimuli/items/jungle_object_27.png,Jungle,object,si,stimuli/integrated/jungle_a_jungle_object_27.jpg,None,0,,,,0,1,1,1,0,40,40,40,,,,,488.7853291249485,,,,,,,,,,,,,,,,,,,,,,,,488.78056741598994,488.7853291249485,490.755353207991,490.7554417499923,490.7614859159803,490.7614859159803,491.7556309159845,491.7556309159845,491.7454437909764,None,0,491.7455264579621,491.7556309159845,492.78084466594737,492.7394489159924,,,,,,,,,,,,,,,,,,321,001,,,2026-04-26_23h32.33.120,encodingtask,,2025.2.4,None,2026-04-26 23h32.33.357251 +0200,
2,41,41,0,stimuli/TESTscenes/JA_1.jpg,Jungle,Negvi,stimuli/items/undersea_animal_23.png,Undersea,animal,si,stimuli/integrated/undersea_a_undersea_animal_23.jpg,None,0,,,,0,1,1,1,0,41,41,41,,,,,492.78084466594737,,,,,,,,,,,,,,,,,,,,,,,,492.77520070795435,492.78084466594737,494.75571854098234,494.7558535829885,494.76221249997616,494.76221249997616,,,495.7556872079731,None,0,495.75587141595315,495.7615463749971,496.78628729097545,496.7453731249552,,,,,,,,,,,,,,,,,,321,001,,,2026-04-26_23h32.33.120,encodingtask,,2025.2.4,None,2026-04-26 23h32.33.357251 +0200,
2,42,42,0,stimuli/TESTscenes/UB_1.jpg,Undersea,Tulon,stimuli/items/undersea_animal_4.png,Undersea,animal,sc,stimuli/integrated/undersea_b_undersea_animal_4.jpg,None,0,,,,0,1,1,1,0,42,42,42,,,,,496.78628729097545,,,,,,,,,,,,,,,,,,,,,,,,496.7811080409447,496.78628729097545,498.75556737498846,498.7556744159665,498.76127079100115,498.76127079100115,499.7555026249611,499.7555026249611,499.7446211659699,None,0,499.7447257079766,499.7555026249611,500.7785206659464,500.7393497079611,,,,,,,,,,,,,,,,,,321,001,,,2026-04-26_23h32.33.120,encodingtask,,2025.2.4,None,2026-04-26 23h32.33.357251 +0200,
2,43,43,0,stimuli/TESTscenes/JB_1.jpg,Jungle,Malbow,stimuli/items/undersea_animal_14.png,Undersea,animal,si,stimuli/integrated/undersea_a_undersea_animal_14.jpg,None,0,,,,0,1,1,1,0,43,43,43,,,,,500.7785206659464,,,,,,,,,,,,,,,,,,,,,,,,500.7732079579728,500.7785206659464,502.75584962498397,502.7559520829818,502.7611347909551,502.7611347909551,503.7552893329994,503.7552893329994,503.74436762498226,None,0,503.7444737079786,503.7552893329994,504.7767948329565,504.7392672499991,,,,,,,,,,,,,,,,,,321,001,,,2026-04-26_23h32.33.120,encodingtask,,2025.2.4,None,2026-04-26 23h32.33.357251 +0200,
2,44,44,0,stimuli/TESTscenes/UB_1.jpg,Undersea,Tulon,stimuli/items/undersea_object_18.png,Undersea,object,sc,stimuli/integrated/undersea_a_undersea_object_18.jpg,None,0,,,,0,1,1,1,0,44,44,44,,,,,504.7767948329565,,,,,,,,,,,,,,,,,,,,,,,,504.77166037494317,504.7767948329565,506.75589829095406,506.7560288749519,506.7621176659595,506.7621176659595,507.7553523329552,507.7553523329552,507.74533862498356,None,0,507.7454241659725,507.7553523329552,508.78000708296895,508.739340332977,,,,,,,,,,,,,,,,,,321,001,,,2026-04-26_23h32.33.120,encodingtask,,2025.2.4,None,2026-04-26 23h32.33.357251 +0200,
2,45,45,0,stimuli/TESTscenes/JA_1.jpg,Jungle,Negvi,stimuli/items/jungle_animal_44.png,Jungle,animal,sc,stimuli/integrated/jungle_b_jungle_animal_44.jpg,None,0,,,,0,1,1,1,0,45,45,45,,,,,508.78000708296895,,,,,,,,,,,,,,,,,,,,,,,,508.7748169580009,508.78000708296895,510.75603854097426,510.75616495794384,510.7623048329842,510.7623048329842,,,511.7557677909499,None,0,511.75595366599737,511.76187462499365,512.783467665955,512.745759707992,,,,,,,,,,,,,,,,,,321,001,,,2026-04-26_23h32.33.120,encodingtask,,2025.2.4,None,2026-04-26 23h32.33.357251 +0200,
2,46,46,0,stimuli/TESTscenes/UB_1.jpg,Undersea,Tulon,stimuli/items/jungle_animal_19.png,Jungle,animal,si,stimuli/integrated/jungle_a_jungle_animal_19.jpg,None,0,,,,0,1,1,1,0,46,46,46,,,,,512.783467665955,,,,,,,,,,,,,,,,,,,,,,,,512.7782677499927,512.783467665955,514.7558149999822,514.755918040988,514.762322207971,514.762322207971,,,515.7554509159527,None,0,515.7555992909474,515.7614896249725,516.780569165945,516.7448736249935,,,,,,,,,,,,,,,,,,321,001,,,2026-04-26_23h32.33.120,encodingtask,,2025.2.4,None,2026-04-26 23h32.33.357251 +0200,
2,47,47,0,stimuli/TESTscenes/JB_1.jpg,Jungle,Malbow,stimuli/items/jungle_object_19.png,Jungle,object,sc,stimuli/integrated/jungle_b_jungle_object_19.jpg,None,0,,,,0,1,1,1,0,47,47,47,,,,,516.780569165945,,,,,,,,,,,,,,,,,,,,,,,,516.7754358749953,516.780569165945,518.755479332991,518.7556182499975,518.7620284159784,518.7620284159784,519.7552565409569,519.7552565409569,519.7453535409877,None,0,519.7454528749804,519.7552565409569,520.7757014999515,520.7390200829832,,,,,,,,,,,,,,,,,,321,001,,,2026-04-26_23h32.33.120,encodingtask,,2025.2.4,None,2026-04-26 23h32.33.357251 +0200,
2,48,48,0,stimuli/TESTscenes/JA_1.jpg,Jungle,Negvi,stimuli/items/jungle_object_18.png,Jungle,object,sc,stimuli/integrated/jungle_b_jungle_object_18.jpg,None,0,,,,0,1,1,1,0,48,48,48,,,,,520.7757014999515,,,,,,,,,,,,,,,,,,,,,,,,520.7705202499637,520.7757014999515,522.7555221659713,522.7555869579664,522.760250790976,522.760250790976,523.7552593329456,523.7552593329456,523.745373999991,None,0,523.7454739579698,523.7552593329456,524.778334707953,524.739184874983,,,,,,,,,,,,,,,,,,321,001,,,2026-04-26_23h32.33.120,encodingtask,,2025.2.4,None,2026-04-26 23h32.33.357251 +0200,
2,49,49,0,stimuli/TESTscenes/UA_1.jpg,Undersea,Somar,stimuli/items/jungle_object_38.png,Jungle,object,si,stimuli/integrated/jungle_b_jungle_object_38.jpg,None,0,,,,0,1,1,1,0,49,49,49,,,,,524.778334707953,,,,,,,,,,,,,,,,,,,,,,,,524.7730830829823,524.778334707953,526.7557922909618,526.7559143329854,526.7617437499575,526.7617437499575,,,527.7554950409685,None,0,527.7556928329868,527.7620343749877,528.7812947909697,528.7451190829743,,,,,,,,,,,,,,,,,,321,001,,,2026-04-26_23h32.33.120,encodingtask,,2025.2.4,None,2026-04-26 23h32.33.357251 +0200,
2,50,50,0,stimuli/TESTscenes/UB_1.jpg,Undersea,Tulon,stimuli/items/undersea_animal_36.png,Undersea,animal,sc,stimuli/integrated/undersea_a_undersea_animal_36.jpg,None,0,,,,0,1,1,1,0,50,50,50,,,,,528.7812947909697,,,,,,,,,,,,,,,,,,,,,,,,528.7762256659917,528.7812947909697,530.7555639159982,530.7556437079911,530.7614990829607,530.7614990829607,531.7553730829968,531.7553730829968,531.7443041660008,None,0,531.7444186249631,531.7553730829968,532.7776714579668,532.7392687499523,,,,,,,,,,,,,,,,,,321,001,,,2026-04-26_23h32.33.120,encodingtask,,2025.2.4,None,2026-04-26 23h32.33.357251 +0200,
2,51,51,0,stimuli/TESTscenes/JA_1.jpg,Jungle,Negvi,stimuli/items/undersea_object_9.png,Undersea,object,si,stimuli/integrated/undersea_b_undersea_object_9.jpg,None,0,,,,0,1,1,1,0,51,51,51,,,,,532.7776714579668,,,,,,,,,,,,,,,,,,,,,,,,532.7723750000005,532.7776714579668,534.7555192079744,534.7555935829878,534.7612399999634,534.7612399999634,535.7552548749954,535.7552548749954,535.7454484159825,None,0,535.7455532499589,535.7552548749954,536.7771042499808,536.7393230829621,,,,,,,,,,,,,,,,,,321,001,,,2026-04-26_23h32.33.120,encodingtask,,2025.2.4,None,2026-04-26 23h32.33.357251 +0200,
2,52,52,0,stimuli/TESTscenes/JB_1.jpg,Jungle,Malbow,stimuli/items/undersea_animal_28.png,Undersea,animal,si,stimuli/integrated/undersea_a_undersea_animal_28.jpg,None,0,,,,0,1,1,1,0,52,52,52,,,,,536.7771042499808,,,,,,,,,,,,,,,,,,,,,,,,536.7719092909829,536.7771042499808,538.7555720829987,538.7556801249739,538.7621567499591,538.7621567499591,539.7552275829948,539.7552275829948,539.7453867909499,None,0,539.745486165979,539.7552275829948,540.777277999965,540.7389628329547,,,,,,,,,,,,,,,,,,321,001,,,2026-04-26_23h32.33.120,encodingtask,,2025.2.4,None,2026-04-26 23h32.33.357251 +0200,
2,53,53,0,stimuli/TESTscenes/JA_1.jpg,Jungle,Negvi,stimuli/items/undersea_animal_19.png,Undersea,animal,si,stimuli/integrated/undersea_a_undersea_animal_19.jpg,None,0,,,,0,1,1,1,0,53,53,53,,,,,540.777277999965,,,,,,,,,,,,,,,,,,,,,,,,540.7719600409619,540.777277999965,542.7556922499789,542.7558503329637,542.7620862909826,542.7620862909826,,,543.7555496249697,None,0,543.7556902079959,543.7614151659654,544.7834677499486,544.7455365409842,,,,,,,,,,,,,,,,,,321,001,,,2026-04-26_23h32.33.120,encodingtask,,2025.2.4,None,2026-04-26 23h32.33.357251 +0200,
2,54,54,0,stimuli/TESTscenes/UB_1.jpg,Undersea,Tulon,stimuli/items/jungle_object_32.png,Jungle,object,si,stimuli/integrated/jungle_b_jungle_object_32.jpg,None,0,,,,0,1,1,1,0,54,54,54,,,,,544.7834677499486,,,,,,,,,,,,,,,,,,,,,,,,544.7781247079838,544.7834677499486,546.7553553329781,546.7554324579542,546.760943915986,546.760943915986,547.7553282079753,547.7553282079753,547.7446706249611,None,0,547.7447579999571,547.7553282079753,548.7769929999486,548.7392816659994,,,,,,,,,,,,,,,,,,321,001,,,2026-04-26_23h32.33.120,encodingtask,,2025.2.4,None,2026-04-26 23h32.33.357251 +0200,
2,55,55,0,stimuli/TESTscenes/JA_1.jpg,Jungle,Negvi,stimuli/items/jungle_animal_1.png,Jungle,animal,sc,stimuli/integrated/jungle_b_jungle_animal_1.jpg,None,0,,,,0,1,1,1,0,55,55,55,,,,,548.7769929999486,,,,,,,,,,,,,,,,,,,,,,,,548.7717185829533,548.7769929999486,550.7553422909696,550.7554628749494,550.7613735409686,550.7613735409686,551.7552117909654,551.7552117909654,551.744867499976,None,0,551.7449639579863,551.7552117909654,552.7766712079756,552.7389636249864,,,,,,,,,,,,,,,,,,321,001,,,2026-04-26_23h32.33.120,encodingtask,,2025.2.4,None,2026-04-26 23h32.33.357251 +0200,
2,56,56,0,stimuli/TESTscenes/JB_1.jpg,Jungle,Malbow,stimuli/items/jungle_animal_14.png,Jungle,animal,sc,stimuli/integrated/jungle_b_jungle_animal_14.jpg,None,0,,,,0,1,1,1,0,56,56,56,,,,,552.7766712079756,,,,,,,,,,,,,,,,,,,,,,,,552.7713557909592,552.7766712079756,554.7553432909772,554.7554234579438,554.7609600829892,554.7609600829892,555.7552668329445,555.7552668329445,555.7450564999599,None,0,555.7451508329832,555.7552668329445,556.7775501249707,556.7391461659572,,,,,,,,,,,,,,,,,,321,001,,,2026-04-26_23h32.33.120,encodingtask,,2025.2.4,None,2026-04-26 23h32.33.357251 +0200,
2,57,57,0,stimuli/TESTscenes/JA_1.jpg,Jungle,Negvi,stimuli/items/jungle_animal_17.png,Jungle,animal,sc,stimuli/integrated/jungle_a_jungle_animal_17.jpg,None,0,,,,0,1,1,1,0,57,57,57,,,,,556.7775501249707,,,,,,,,,,,,,,,,,,,,,,,,556.7724742079736,556.7775501249707,558.7555190409767,558.7556460829801,558.761999957962,558.761999957962,,,559.7553159159725,None,0,559.7554689159733,559.7608497079927,560.7788937079604,560.7438764159451,,,,,,,,,,,,,,,,,,321,001,,,2026-04-26_23h32.33.120,encodingtask,,2025.2.4,None,2026-04-26 23h32.33.357251 +0200,
2,58,58,0,stimuli/TESTscenes/JB_1.jpg,Jungle,Malbow,stimuli/items/undersea_object_35.png,Undersea,object,si,stimuli/integrated/undersea_a_undersea_object_35.jpg,None,0,,,,0,1,1,1,0,58,58,58,,,,,560.7788937079604,,,,,,,,,,,,,,,,,,,,,,,,560.7736200409709,560.7788937079604,562.7557574159582,562.755892874964,562.7622192499693,562.7622192499693,563.7550630829646,563.7550630829646,563.7450356659829,None,0,563.7451384579763,563.7550630829646,564.7768436249462,564.738910999964,,,,,,,,,,,,,,,,,,321,001,,,2026-04-26_23h32.33.120,encodingtask,,2025.2.4,None,2026-04-26 23h32.33.357251 +0200,
2,59,59,0,stimuli/TESTscenes/UA_1.jpg,Undersea,Somar,stimuli/items/undersea_animal_38.png,Undersea,animal,sc,stimuli/integrated/undersea_b_undersea_animal_38.jpg,None,0,,,,0,1,1,1,0,59,59,59,,,,,564.7768436249462,,,,,,,,,,,,,,,,,,,,,,,,564.7717659999616,564.7768436249462,566.7552927910001,566.7554342909716,566.7619280829676,566.7619280829676,,,567.7553664579755,None,0,567.7555201249779,567.7610744579579,568.7819766659522,568.7451593329897,,,,,,,,,,,,,,,,,,321,001,,,2026-04-26_23h32.33.120,encodingtask,,2025.2.4,None,2026-04-26 23h32.33.357251 +0200,
2,60,60,0,stimuli/TESTscenes/UB_1.jpg,Undersea,Tulon,stimuli/items/undersea_object_17.png,Undersea,object,sc,stimuli/integrated/undersea_b_undersea_object_17.jpg,None,0,,,,0,1,1,1,0,60,60,60,,,,,568.7819766659522,,,,,,,,,,,,,,,,,,,,,,,,568.7767531249556,568.7819766659522,570.7552753749769,570.755410874961,570.7614211249747,570.7614211249747,571.7551415409544,571.7551415409544,571.744276124984,None,0,571.7443823329522,571.7551415409544,572.7775803749682,572.7389030409977,,,,,,,,,,,,,,,,,,321,001,,,2026-04-26_23h32.33.120,encodingtask,,2025.2.4,None,2026-04-26 23h32.33.357251 +0200,
2,61,61,0,stimuli/TESTscenes/UA_1.jpg,Undersea,Somar,stimuli/items/undersea_object_2.png,Undersea,object,sc,stimuli/integrated/undersea_a_undersea_object_2.jpg,None,0,,,,0,1,1,1,0,61,61,61,,,,,572.7775803749682,,,,,,,,,,,,,,,,,,,,,,,,572.772366457968,572.7775803749682,574.7551854159683,574.75531137496,574.7616184159997,574.7616184159997,575.755049749976,575.755049749976,575.7449213749496,None,0,575.7450221659965,575.755049749976,576.7775241659838,576.7389720409992,,,,,,,,,,,,,,,,,,321,001,,,2026-04-26_23h32.33.120,encodingtask,,2025.2.4,None,2026-04-26 23h32.33.357251 +0200,
2,62,62,0,stimuli/TESTscenes/UB_1.jpg,Undersea,Tulon,stimuli/items/jungle_object_4.png,Jungle,object,si,stimuli/integrated/jungle_b_jungle_object_4.jpg,None,0,,,,0,1,1,1,0,62,62,62,,,,,576.7775241659838,,,,,,,,,,,,,,,,,,,,,,,,576.772304165992,576.7775241659838,578.755325999984,578.7554747499526,578.7615862079547,578.7615862079547,579.7548974999809,579.7548974999809,579.7449521249509,None,0,579.7450521249557,579.7548974999809,580.7758058329928,580.7386704999954,,,,,,,,,,,,,,,,,,321,001,,,2026-04-26_23h32.33.120,encodingtask,,2025.2.4,None,2026-04-26 23h32.33.357251 +0200,
2,63,63,0,stimuli/TESTscenes/JA_1.jpg,Jungle,Negvi,stimuli/items/undersea_object_31.png,Undersea,object,si,stimuli/integrated/undersea_b_undersea_object_31.jpg,None,0,,,,0,1,1,1,0,63,63,63,,,,,580.7758058329928,,,,,,,,,,,,,,,,,,,,,,,,580.770733124984,580.7758058329928,582.7552917499561,582.7553911249852,582.7617809579824,582.7617809579824,,,583.7551397499628,None,0,583.7552902909811,583.7609462499968,584.7820204159943,584.7449320829473,,,,,,,,,,,,,,,,,,321,001,,,2026-04-26_23h32.33.120,encodingtask,,2025.2.4,None,2026-04-26 23h32.33.357251 +0200,
2,64,64,0,stimuli/TESTscenes/UB_1.jpg,Undersea,Tulon,stimuli/items/jungle_animal_27.png,Jungle,animal,si,stimuli/integrated/jungle_a_jungle_animal_27.jpg,None,0,,,,0,1,1,1,0,64,64,64,,,,,584.7820204159943,,,,,,,,,,,,,,,,,,,,,,,,584.7768721659668,584.7820204159943,586.7553413749556,586.7554715409642,586.7618087499868,586.7618087499868,587.7548562909942,587.7548562909942,587.7450757499901,None,0,587.745175457967,587.7548562909942,588.7755951659638,588.7386671249988,,,,,,,,,,,,,,,,,,321,001,,,2026-04-26_23h32.33.120,encodingtask,,2025.2.4,None,2026-04-26 23h32.33.357251 +0200,
2,65,65,0,stimuli/TESTscenes/JA_1.jpg,Jungle,Negvi,stimuli/items/jungle_animal_41.png,Jungle,animal,sc,stimuli/integrated/jungle_a_jungle_animal_41.jpg,None,0,,,,0,1,1,1,0,65,65,65,,,,,588.7755951659638,,,,,,,,,,,,,,,,,,,,,,,,588.7704508749885,588.7755951659638,590.7550247909967,590.7552145829541,590.7615634579561,590.7615634579561,591.7549202909577,591.7549202909577,591.7448849999928,None,0,591.744990874955,591.7549202909577,592.7758864159696,592.7385700829909,,,,,,,,,,,,,,,,,,321,001,,,2026-04-26_23h32.33.120,encodingtask,,2025.2.4,None,2026-04-26 23h32.33.357251 +0200,
2,66,66,0,stimuli/TESTscenes/UB_1.jpg,Undersea,Tulon,stimuli/items/undersea_object_4.png,Undersea,object,sc,stimuli/integrated/undersea_b_undersea_object_4.jpg,None,0,,,,0,1,1,1,0,66,66,66,,,,,592.7758864159696,,,,,,,,,,,,,,,,,,,,,,,,592.7707723329659,592.7758864159696,594.7550995409838,594.7551730829873,594.7608512909501,594.7608512909501,,,595.7550768749788,None,0,595.7553191249608,595.76145279099,596.7807972499868,596.7447040829575,,,,,,,,,,,,,,,,,,321,001,,,2026-04-26_23h32.33.120,encodingtask,,2025.2.4,None,2026-04-26 23h32.33.357251 +0200,
2,67,67,0,stimuli/TESTscenes/JB_1.jpg,Jungle,Malbow,stimuli/items/jungle_animal_25.png,Jungle,animal,sc,stimuli/integrated/jungle_b_jungle_animal_25.jpg,None,0,,,,0,1,1,1,0,67,67,67,,,,,596.7807972499868,,,,,,,,,,,,,,,,,,,,,,,,596.7757247909904,596.7807972499868,598.7551188329817,598.7552154999576,598.7616912499652,598.7616912499652,599.7549273749464,599.7549273749464,599.7444807499996,None,0,599.7445688750013,599.7549273749464,600.777523290948,600.7386528749485,,,,,,,,,,,,,,,,,,321,001,,,2026-04-26_23h32.33.120,encodingtask,,2025.2.4,None,2026-04-26 23h32.33.357251 +0200,
2,68,68,0,stimuli/TESTscenes/JA_1.jpg,Jungle,Negvi,stimuli/items/jungle_object_28.png,Jungle,object,sc,stimuli/integrated/jungle_a_jungle_object_28.jpg,None,0,,,,0,1,1,1,0,68,68,68,,,,,600.777523290948,,,,,,,,,,,,,,,,,,,,,,,,600.7722344159847,600.777523290948,602.7554221659666,602.7554967079777,602.7612070409814,602.7612070409814,603.7547409579856,603.7547409579856,603.7441727499827,None,0,603.7442902079783,603.7547409579856,604.7760872079525,604.7384862499894,,,,,,,,,,,,,,,,,,321,001,,,2026-04-26_23h32.33.120,encodingtask,,2025.2.4,None,2026-04-26 23h32.33.357251 +0200,
2,69,69,0,stimuli/TESTscenes/UB_1.jpg,Undersea,Tulon,stimuli/items/undersea_object_5.png,Undersea,object,sc,stimuli/integrated/undersea_a_undersea_object_5.jpg,None,0,,,,0,1,1,1,0,69,69,69,,,,,604.7760872079525,,,,,,,,,,,,,,,,,,,,,,,,604.7708251659642,604.7760872079525,606.7551732499851,606.755272749986,606.7616246249527,606.7616246249527,607.754896874947,607.754896874947,607.7447377499775,None,0,607.7448407909833,607.754896874947,608.776522540953,608.7384956249734,,,,,,,,,,,,,,,,,,321,001,,,2026-04-26_23h32.33.120,encodingtask,,2025.2.4,None,2026-04-26 23h32.33.357251 +0200,
2,70,70,0,stimuli/TESTscenes/JB_1.jpg,Jungle,Malbow,stimuli/items/undersea_animal_34.png,Undersea,animal,si,stimuli/integrated/undersea_a_undersea_animal_34.jpg,None,0,,,,0,1,1,1,0,70,70,70,,,,,608.776522540953,,,,,,,,,,,,,,,,,,,,,,,,608.771307249961,608.776522540953,610.754892500001,610.7549676249619,610.7605897909962,610.7605897909962,611.7548128749477,611.7548128749477,611.744860249979,None,0,611.7449419159675,611.7548128749477,612.7747187909554,612.7386981659802,,,,,,,,,,,,,,,,,,321,001,,,2026-04-26_23h32.33.120,encodingtask,,2025.2.4,None,2026-04-26 23h32.33.357251 +0200,
2,71,71,0,stimuli/TESTscenes/JA_1.jpg,Jungle,Negvi,stimuli/items/undersea_animal_27.png,Undersea,animal,si,stimuli/integrated/undersea_a_undersea_animal_27.jpg,None,0,,,,0,1,1,1,0,71,71,71,,,,,612.7747187909554,,,,,,,,,,,,,,,,,,,,,,,,612.7696051249513,612.7747187909554,614.7547630829504,614.7548868329613,614.7603521659621,614.7603521659621,615.7546686249552,615.7546686249552,615.7436204999685,None,0,615.7437279999722,615.7546686249552,616.7764592909953,616.7384847499779,,,,,,,,,,,,,,,,,,321,001,,,2026-04-26_23h32.33.120,encodingtask,,2025.2.4,None,2026-04-26 23h32.33.357251 +0200,
2,72,72,0,stimuli/TESTscenes/JB_1.jpg,Jungle,Malbow,stimuli/items/jungle_object_7.png,Jungle,object,sc,stimuli/integrated/jungle_a_jungle_object_7.jpg,None,0,,,,0,1,1,1,0,72,72,72,,,,,616.7764592909953,,,,,,,,,,,,,,,,,,,,,,,,616.7713311659754,616.7764592909953,618.7547279159771,618.7548057079548,618.7595346249873,618.7595346249873,619.7545569159556,619.7545569159556,619.7444444579887,None,0,619.7445424159523,619.7545569159556,620.7756532079657,620.7384034999995,,,,,,,,,,,,,,,,,,321,001,,,2026-04-26_23h32.33.120,encodingtask,,2025.2.4,None,2026-04-26 23h32.33.357251 +0200,
2,73,73,0,stimuli/TESTscenes/UB_1.jpg,Undersea,Tulon,stimuli/items/undersea_animal_5.png,Undersea,animal,sc,stimuli/integrated/undersea_b_undersea_animal_5.jpg,None,0,,,,0,1,1,1,0,73,73,73,,,,,620.7756532079657,,,,,,,,,,,,,,,,,,,,,,,,620.7705624160008,620.7756532079657,622.7551150829531,622.755229665956,622.7615273330011,622.7615273330011,,,623.7548742499785,None,0,623.755030915956,623.760647374962,624.7800397909596,624.7434218329727,,,,,,,,,,,,,,,,,,321,001,,,2026-04-26_23h32.33.120,encodingtask,,2025.2.4,None,2026-04-26 23h32.33.357251 +0200,
2,74,74,0,stimuli/TESTscenes/JB_1.jpg,Jungle,Malbow,stimuli/items/undersea_object_22.png,Undersea,object,si,stimuli/integrated/undersea_b_undersea_object_22.jpg,None,0,,,,0,1,1,1,0,74,74,74,,,,,624.7800397909596,,,,,,,,,,,,,,,,,,,,,,,,624.77485745796,624.7800397909596,626.7550393749843,626.7551922499551,626.7611733329832,626.7611733329832,,,627.7548864579876,None,0,627.7550821249606,627.7613212079741,628.7810315829702,628.7445646659471,,,,,,,,,,,,,,,,,,321,001,,,2026-04-26_23h32.33.120,encodingtask,,2025.2.4,None,2026-04-26 23h32.33.357251 +0200,
2,75,75,0,stimuli/TESTscenes/UA_1.jpg,Undersea,Somar,stimuli/items/jungle_animal_21.png,Jungle,animal,si,stimuli/integrated/jungle_a_jungle_animal_21.jpg,None,0,,,,0,1,1,1,0,75,75,75,,,,,628.7810315829702,,,,,,,,,,,,,,,,,,,,,,,,628.7759292499977,628.7810315829702,630.754960790975,630.7550566249993,630.7608036659658,630.7608036659658,631.7546357079991,631.7546357079991,631.744545915979,None,0,631.7446408329997,631.7546357079991,632.7756992079667,632.7384034579736,,,,,,,,,,,,,,,,,,321,001,,,2026-04-26_23h32.33.120,encodingtask,,2025.2.4,None,2026-04-26 23h32.33.357251 +0200,
2,76,76,0,stimuli/TESTscenes/JB_1.jpg,Jungle,Malbow,stimuli/items/jungle_animal_16.png,Jungle,animal,sc,stimuli/integrated/jungle_b_jungle_animal_16.jpg,None,0,,,,0,1,1,1,0,76,76,76,,,,,632.7756992079667,,,,,,,,,,,,,,,,,,,,,,,,632.7704862909741,632.7756992079667,634.755057582981,634.7551864999696,634.7611976249609,634.7611976249609,635.7546145409578,635.7546145409578,635.7444997499697,None,0,635.7446022499935,635.7546145409578,636.7754296659841,636.7382390829735,,,,,,,,,,,,,,,,,,321,001,,,2026-04-26_23h32.33.120,encodingtask,,2025.2.4,None,2026-04-26 23h32.33.357251 +0200,
2,77,77,0,stimuli/TESTscenes/UB_1.jpg,Undersea,Tulon,stimuli/items/jungle_object_13.png,Jungle,object,si,stimuli/integrated/jungle_a_jungle_object_13.jpg,None,0,,,,0,1,1,1,0,77,77,77,,,,,636.7754296659841,,,,,,,,,,,,,,,,,,,,,,,,636.7704130829661,636.7754296659841,638.7548159159487,638.7548882499686,638.7605304159806,638.7605304159806,639.7545989159844,639.7545989159844,639.7440402079956,None,0,639.744152624975,639.7545989159844,640.7751912499662,640.7383929999778,,,,,,,,,,,,,,,,,,321,001,,,2026-04-26_23h32.33.120,encodingtask,,2025.2.4,None,2026-04-26 23h32.33.357251 +0200,
2,78,78,0,stimuli/TESTscenes/JA_1.jpg,Jungle,Negvi,stimuli/items/jungle_object_31.png,Jungle,object,sc,stimuli/integrated/jungle_a_jungle_object_31.jpg,None,0,,,,0,1,1,1,0,78,78,78,,,,,640.7751912499662,,,,,,,,,,,,,,,,,,,,,,,,640.7701846249984,640.7751912499662,642.7549402079894,642.7550666659954,642.7614457079908,642.7614457079908,,,643.754897207953,None,0,643.7551032909541,643.7618168749614,,644.7547633749782,,,,,,,,,,,,,,,,,,321,001,,,2026-04-26_23h32.33.120,encodingtask,,2025.2.4,None,2026-04-26 23h32.33.357251 +0200,
2,79,79,0,stimuli/TESTscenes/UA_1.jpg,Undersea,Somar,stimuli/items/jungle_animal_45.png,Jungle,animal,si,stimuli/integrated/jungle_b_jungle_animal_45.jpg,None,0,,,,0,1,1,1,0,79,79,79,,,,,644.7937742499635,,,,,,,,,,,,,,,,,,,,,,,,644.7884861659841,644.7937742499635,646.7548295829911,646.7549741249532,646.7612693749834,646.7612693749834,647.7544466659892,647.7544466659892,647.7451445409679,None,0,647.7452507079579,647.7544466659892,648.7621102079866,648.7382971249754,,,,,,,,,,,,,,,,,,321,001,,,2026-04-26_23h32.33.120,encodingtask,,2025.2.4,None,2026-04-26 23h32.33.357251 +0200,
2,0,0,0,,,,,,,,,,,space,10.61668691597879,None,0,1,1,1,,,,,0,0,0,0,648.7621102079866,,,,,,,,,,,,,,,,,,,,,,,,,,,,,,,,,,,,,,,648.755793957971,648.755876249983,648.7565645829891,648.7621102079866,648.7621102079866,648.7621102079866,659.39144454099,space,10.61668691597879,None,,,,,,,,321,001,,,2026-04-26_23h32.33.120,encodingtask,,2025.2.4,None,2026-04-26 23h32.33.357251 +0200,
2,1,1,0,,,,,,,,,,,,,,0,1,1,1,,,,,,,,,,,,,,,,,,,,,,,,,,,,,,,,,,,,,,,,,,,,,,,,,,,,,,,,,,,,,,,,,321,001,,,2026-04-26_23h32.33.120,encodingtask,,2025.2.4,None,2026-04-26 23h32.33.357251 +0200,
3,0,0,0,stimuli/TESTscenes/JA_1.jpg,Jungle,Negvi,stimuli/items/undersea_object_36.png,Undersea,object,si,stimuli/integrated/undersea_b_undersea_object_36.jpg,None,0,,,,0,2,2,2,0,0,0,0,,,,,659.4472396249766,,,,,,,,,,,,,,,,,,,,,,659.3942021659459,659.3942822499666,659.436664082983,659.4472396249766,661.4047655829927,661.4048669999465,661.4109697079984,661.4109697079984,,,662.404665332986,None,0,662.4048077079933,662.4105399159598,663.4323111659614,663.3940024159965,,,,,,,,,,,,,,,,,,321,001,,,2026-04-26_23h32.33.120,encodingtask,,2025.2.4,None,2026-04-26 23h32.33.357251 +0200,
3,1,1,0,stimuli/TESTscenes/JB_1.jpg,Jungle,Malbow,stimuli/items/undersea_object_33.png,Undersea,object,si,stimuli/integrated/undersea_a_undersea_object_33.jpg,None,0,,,,0,2,2,2,0,1,1,1,,,,,663.4323111659614,,,,,,,,,,,,,,,,,,,,,,,,663.426549249969,663.4323111659614,665.4046831659507,665.4048299579881,665.4108724579564,665.4108724579564,,,666.4045077499468,None,0,666.4046697909944,666.4104773749714,667.4306785409572,667.3942950409837,,,,,,,,,,,,,,,,,,321,001,,,2026-04-26_23h32.33.120,encodingtask,,2025.2.4,None,2026-04-26 23h32.33.357251 +0200,
3,2,2,0,stimuli/TESTscenes/JA_1.jpg,Jungle,Negvi,stimuli/items/undersea_animal_22.png,Undersea,animal,si,stimuli/integrated/undersea_a_undersea_animal_22.jpg,None,0,,,,0,2,2,2,0,2,2,2,,,,,667.4306785409572,,,,,,,,,,,,,,,,,,,,,,,,667.425417832972,667.4306785409572,669.404505249986,669.4046052909689,669.4108587079681,669.4108587079681,670.4044097079895,670.4044097079895,670.394383915991,None,0,670.3944771249662,670.4044097079895,671.4269916249905,671.3880557499942,,,,,,,,,,,,,,,,,,321,001,,,2026-04-26_23h32.33.120,encodingtask,,2025.2.4,None,2026-04-26 23h32.33.357251 +0200,
3,3,3,0,stimuli/TESTscenes/UA_1.jpg,Undersea,Somar,stimuli/items/undersea_object_24.png,Undersea,object,sc,stimuli/integrated/undersea_b_undersea_object_24.jpg,None,0,,,,0,2,2,2,0,3,3,3,,,,,671.4269916249905,,,,,,,,,,,,,,,,,,,,,,,,671.4217859579949,671.4269916249905,673.404541249969,673.4046911249752,673.4110431659501,673.4110431659501,674.4042644999572,674.4042644999572,674.3943846659968,None,0,674.3944783329498,674.4042644999572,675.4257743749768,675.3882302909624,,,,,,,,,,,,,,,,,,321,001,,,2026-04-26_23h32.33.120,encodingtask,,2025.2.4,None,2026-04-26 23h32.33.357251 +0200,
3,4,4,0,stimuli/TESTscenes/UB_1.jpg,Undersea,Tulon,stimuli/items/jungle_animal_13.png,Jungle,animal,si,stimuli/integrated/jungle_a_jungle_animal_13.jpg,None,0,,,,0,2,2,2,0,4,4,4,,,,,675.4257743749768,,,,,,,,,,,,,,,,,,,,,,,,675.4207415829878,675.4257743749768,677.4044562909985,677.4045832499978,677.4103389999946,677.4103389999946,678.404158624995,678.404158624995,678.3932801249903,None,0,678.3933789579896,678.404158624995,679.4256315409439,679.3879555409658,,,,,,,,,,,,,,,,,,321,001,,,2026-04-26_23h32.33.120,encodingtask,,2025.2.4,None,2026-04-26 23h32.33.357251 +0200,
