run,thisN,thisTrialN,thisRepN,scene_stimulus,scene_cat,scene_label,canonical_item,item_cat,item_type,congruency,integrated_stimulus,recalled_stimulus,key_resp_congruency.keys,key_resp_congruency.corr,key_resp_congruency.rt,key_resp_congruency.duration,runs_trial.thisRepN,runs_trial.thisTrialN,runs_trial.thisN,runs_trial.thisIndex,trials.thisRepN,trials.thisTrialN,trials.thisN,trials.thisIndex,between_run_inst.thisRepN,between_run_inst.thisTrialN,between_run_inst.thisN,between_run_inst.thisIndex,thisRow.t,notes,get_relatedness_keys.started,get_relatedness_keys.stopped,instructions_screen.started,text_instructions.started,key_welcome.started,instructions_screen.stopped,key_welcome.keys,key_welcome.rt,key_welcome.duration,instruction_keys.started,text_keys.started,key_resp_keysInst.started,instruction_keys.stopped,key_resp_keysInst.keys,key_resp_keysInst.rt,key_resp_keysInst.duration,blank2000.started,text_2.started,text_2.stopped,blank2000.stopped,get_run_stim_list.started,get_run_stim_list.stopped,integrated_scene_presentation.started,image_integrated.started,integrated_scene_presentation.stopped,congruency_response.started,text_congruency.started,key_resp_congruency.started,congruency_response.stopped,trials.key_resp_congruency.keys,trials.key_resp_congruency.corr,trials.key_resp_congruency.rt,trials.key_resp_congruency.duration,blank1000.started,text_8.started,text_8.stopped,blank1000.stopped,image_integrated.stopped,text_congruency.stopped,key_resp_congruency.stopped,is_last_run.started,is_last_run.stopped,between_run_pause.started,text_run_pause.started,text_relatedness_pause.started,key_resp_next_run.started,participant,session,group,delay,mode,date,expName,expVersion,psychopyVersion,frameRate,expStart,
,,,,,,,,,,,,,,,,,,,,,,,,,,,,,,,0.012531333020888269,0.012618875014595687,,,,,,,,,,,,,,,,,,,,,,,,,,,,,,,,,,,,,,,,,,,,,330,001,,,behavioral,2026-05-27_14h54.25.718,encodingtask,,2025.2.4,None,2026-05-27 14h54.25.975610 -0400,
,,,,,,,,,,,,,,,,,,,,,,,,,,,,,,,,,0.012638375046662986,0.023667500005103648,1.0078082920517772,3.8206661250442266,space,2.5550282910699025,None,,,,,,,,,,,,,,,,,,,,,,,,,,,,,,,,,,,,,,330,001,,,behavioral,2026-05-27_14h54.25.718,encodingtask,,2025.2.4,None,2026-05-27 14h54.25.975610 -0400,
,,,,,,,,,,,,,,,,,,,,,,,,,,,,,,,,,,,,,,,,3.8272718329681084,3.850145125063136,3.850145125063136,9.52624925004784,space,5.664482624968514,None,,,,,,,,,,,,,,,,,,,,,,,,,,,,,,,330,001,,,behavioral,2026-05-27_14h54.25.718,encodingtask,,2025.2.4,None,2026-05-27 14h54.25.975610 -0400,
,,,,,,,,,,,,,,,,,,,,,,,,,,,,,,,,,,,,,,,,,,,,,,,9.52637641702313,9.53921233303845,11.607841582968831,11.524925707955845,,,,,,,,,,,,,,,,,,,,,,,,,,,330,001,,,behavioral,2026-05-27_14h54.25.718,encodingtask,,2025.2.4,None,2026-05-27 14h54.25.975610 -0400,
1,0,0,0,stimuli/scenes/UA_1.jpg,Undersea,Tulon,stimuli/items/jungle_animal_17.png,Jungle,animal,si,stimuli/integrated/ocean_a_jungle_animal_17.jpg,stimuli/recalled/recalled_ocean_a_jungle_animal_17.jpg,q,0,0.6850789999589324,None,0,0,0,0,0,0,0,0,,,,,11.607841582968831,,,,,,,,,,,,,,,,,,,,,,11.553415292059071,11.553469875012524,11.6022756670136,11.607841582968831,13.5580759170698,13.55814883299172,13.564362875069492,13.564362875069492,14.258657875005156,q,0,0.6850789999589324,None,14.258749875007197,14.272319874959067,15.291248667053878,15.258146208012477,,,,,,,,,,330,001,,,behavioral,2026-05-27_14h54.25.718,encodingtask,,2025.2.4,None,2026-05-27 14h54.25.975610 -0400,
1,1,1,0,stimuli/scenes/UB_1.jpg,Undersea,Somar,stimuli/items/undersea_animal_10.png,Undersea,animal,sc,stimuli/integrated/ocean_b_undersea_animal_10.jpg,stimuli/recalled/recalled_ocean_b_undersea_animal_10.jpg,q,1,0.28358570800628513,None,0,0,0,0,0,1,1,1,,,,,15.291248667053878,,,,,,,,,,,,,,,,,,,,,,,,15.285027208039537,15.291248667053878,17.26409833296202,17.264177125063725,17.27443550003227,17.27443550003227,17.56445333303418,q,1,0.28358570800628513,None,17.564569500042126,17.59134541696403,,18.574666125001386,,,,,,,,,,330,001,,,behavioral,2026-05-27_14h54.25.718,encodingtask,,2025.2.4,None,2026-05-27 14h54.25.975610 -0400,
1,2,2,0,stimuli/scenes/UA_1.jpg,Undersea,Tulon,stimuli/items/jungle_object_15.png,Jungle,object,si,stimuli/integrated/ocean_a_jungle_object_15.jpg,stimuli/recalled/recalled_ocean_a_jungle_object_15.jpg,p,1,0.2604842080036178,None,0,0,0,0,0,2,2,2,,,,,18.598995625041425,,,,,,,,,,,,,,,,,,,,,,,,18.59326274995692,18.598995625041425,20.574571500066668,20.574638916994445,20.579678958049044,20.579678958049044,20.84258175001014,p,1,0.2604842080036178,None,20.842712542042136,20.847958500031382,21.867535916971974,21.84145470801741,,,,,,,,,,330,001,,,behavioral,2026-05-27_14h54.25.718,encodingtask,,2025.2.4,None,2026-05-27 14h54.25.975610 -0400,
1,3,3,0,stimuli/scenes/UB_1.jpg,Undersea,Somar,stimuli/items/undersea_object_1.png,Undersea,object,sc,stimuli/integrated/ocean_b_undersea_object_1.jpg,stimuli/recalled/recalled_ocean_b_undersea_object_1.jpg,q,1,0.26181791606359184,None,0,0,0,0,0,3,3,3,,,,,21.867535916971974,,,,,,,,,,,,,,,,,,,,,,,,21.86187925003469,21.867535916971974,23.847673667012714,23.84778000006918,23.85811274999287,23.85811274999287,24.1250314170029,q,1,0.26181791606359184,None,24.125166542013176,24.129061250016093,25.137120082974434,25.113513875054196,,,,,,,,,,330,001,,,behavioral,2026-05-27_14h54.25.718,encodingtask,,2025.2.4,None,2026-05-27 14h54.25.975610 -0400,
1,4,4,0,stimuli/scenes/UA_1.jpg,Undersea,Tulon,stimuli/items/jungle_object_13.png,Jungle,object,si,stimuli/integrated/ocean_a_jungle_object_13.jpg,stimuli/recalled/recalled_ocean_a_jungle_object_13.jpg,p,1,0.8644239990971982,None,0,0,0,0,0,4,4,4,,,,,25.137120082974434,,,,,,,,,,,,,,,,,,,,,,,,25.13127162505407,25.137120082974434,27.12458704202436,27.12463266705163,27.129354625009,27.129354625009,27.998256667051464,p,1,0.8644239990971982,None,27.99837279203348,28.012578958063386,29.019949416979216,28.997000582981855,27.129354625009,,,,,,,,,330,001,,,behavioral,2026-05-27_14h54.25.718,encodingtask,,2025.2.4,None,2026-05-27 14h54.25.975610 -0400,
1,5,5,0,stimuli/scenes/JB_1.jpg,Jungle,Negvi,stimuli/items/undersea_object_17.png,Undersea,object,si,stimuli/integrated/jungle_b_undersea_object_17.jpg,stimuli/recalled/recalled_jungle_b_undersea_object_17.jpg,p,1,0.4301791660254821,None,0,0,0,0,0,5,5,5,,,,,29.019949416979216,,,,,,,,,,,,,,,,,,,,,,,,29.014611250022426,29.019949416979216,31.007757832994685,31.00783891696483,31.01341154205147,31.01341154205147,31.44764370797202,p,1,0.4301791660254821,None,31.44776329200249,31.46264466701541,32.47525279200636,32.44611691706814,,,,,,,,,,330,001,,,behavioral,2026-05-27_14h54.25.718,encodingtask,,2025.2.4,None,2026-05-27 14h54.25.975610 -0400,
1,6,6,0,stimuli/scenes/JA_1.jpg,Jungle,Malbow,stimuli/items/undersea_object_3.png,Undersea,object,si,stimuli/integrated/jungle_a_undersea_object_3.jpg,stimuli/recalled/recalled_jungle_a_undersea_object_3.jpg,p,1,0.43680645793210715,None,0,0,0,0,0,6,6,6,,,,,32.47525279200636,,,,,,,,,,,,,,,,,,,,,,,,32.469670166959986,32.47525279200636,34.45834145799745,34.45841850002762,34.463709666975774,34.463709666975774,34.909064250066876,p,1,0.43680645793210715,None,34.90915491699707,34.916535416967236,35.935459958040155,35.90788937499747,,,,,,,,,,330,001,,,behavioral,2026-05-27_14h54.25.718,encodingtask,,2025.2.4,None,2026-05-27 14h54.25.975610 -0400,
1,7,7,0,stimuli/scenes/UA_1.jpg,Undersea,Tulon,stimuli/items/undersea_object_11.png,Undersea,object,sc,stimuli/integrated/ocean_a_undersea_object_11.jpg,stimuli/recalled/recalled_ocean_a_undersea_object_11.jpg,q,1,0.3380123330280185,None,0,0,0,0,0,7,7,7,,,,,35.935459958040155,,,,,,,,,,,,,,,,,,,,,,,,35.929520667064935,35.935459958040155,37.91348479199223,37.91358516702894,37.92440108302981,37.92440108302981,38.264466666965745,q,1,0.3380123330280185,None,38.26460287498776,38.2790373750031,39.28710349998437,39.26310362503864,,,,,,,,,,330,001,,,behavioral,2026-05-27_14h54.25.718,encodingtask,,2025.2.4,None,2026-05-27 14h54.25.975610 -0400,
1,8,8,0,stimuli/scenes/JA_1.jpg,Jungle,Malbow,stimuli/items/undersea_animal_11.png,Undersea,animal,si,stimuli/integrated/jungle_a_undersea_animal_11.jpg,stimuli/recalled/recalled_jungle_a_undersea_animal_11.jpg,p,1,0.38618979102466255,None,0,0,0,0,0,8,8,8,,,,,39.28710349998437,,,,,,,,,,,,,,,,,,,,,,,,39.28177083306946,39.28710349998437,41.27454362506978,41.27461874997243,41.280205792048946,41.280205792048946,41.67362433299422,p,1,0.38618979102466255,None,41.673745375010185,41.67820766696241,42.67418291699141,42.66156920802314,,,,,,,,,,330,001,,,behavioral,2026-05-27_14h54.25.718,encodingtask,,2025.2.4,None,2026-05-27 14h54.25.975610 -0400,
1,9,9,0,stimuli/scenes/UA_1.jpg,Undersea,Tulon,stimuli/items/undersea_animal_2.png,Undersea,animal,sc,stimuli/integrated/ocean_a_undersea_animal_2.jpg,stimuli/recalled/recalled_ocean_a_undersea_animal_2.jpg,q,1,0.365156416897662,None,0,0,0,0,0,9,9,9,,,,,42.67418291699141,,,,,,,,,,,,,,,,,,,,,,,,42.670014542061836,42.67418291699141,44.65783470799215,44.65788070799317,44.66304208303336,44.66304208303336,45.030958708026446,q,1,0.365156416897662,None,45.031067667063326,45.0451605420094,46.052392125013284,46.03003749996424,44.66304208303336,,,,,,,,,330,001,,,behavioral,2026-05-27_14h54.25.718,encodingtask,,2025.2.4,None,2026-05-27 14h54.25.975610 -0400,
1,10,10,0,stimuli/scenes/UB_1.jpg,Undersea,Somar,stimuli/items/jungle_object_9.png,Jungle,object,si,stimuli/integrated/ocean_b_jungle_object_9.jpg,stimuli/recalled/recalled_ocean_b_jungle_object_9.jpg,p,1,0.5905155410291627,None,0,0,0,0,0,10,10,10,,,,,46.052392125013284,,,,,,,,,,,,,,,,,,,,,,,,46.04680745804217,46.052392125013284,48.040909125003964,48.040961874998175,48.04577204200905,48.04577204200905,48.64197187498212,p,1,0.5905155410291627,None,48.64207391696982,48.64655312499963,49.65379879204556,49.62946454202756,,,,,,,,,,330,001,,,behavioral,2026-05-27_14h54.25.718,encodingtask,,2025.2.4,None,2026-05-27 14h54.25.975610 -0400,
1,11,11,0,stimuli/scenes/JB_1.jpg,Jungle,Negvi,stimuli/items/jungle_object_7.png,Jungle,object,sc,stimuli/integrated/jungle_b_jungle_object_7.jpg,stimuli/recalled/recalled_jungle_b_jungle_object_7.jpg,q,1,0.447711665998213,None,0,0,0,0,0,11,11,11,,,,,49.65379879204556,,,,,,,,,,,,,,,,,,,,,,,,49.648545667063445,49.65379879204556,51.64107970800251,51.641124499961734,51.646367124980316,51.646367124980316,52.09672437503468,q,1,0.447711665998213,None,52.09682066703681,52.1070605419809,53.114688292029314,53.09106408304069,51.646367124980316,,,,,,,,,330,001,,,behavioral,2026-05-27_14h54.25.718,encodingtask,,2025.2.4,None,2026-05-27 14h54.25.975610 -0400,
1,12,12,0,stimuli/scenes/UB_1.jpg,Undersea,Somar,stimuli/items/undersea_animal_12.png,Undersea,animal,sc,stimuli/integrated/ocean_b_undersea_animal_12.jpg,stimuli/recalled/recalled_ocean_b_undersea_animal_12.jpg,q,1,0.42447974905371666,None,0,0,0,0,0,12,12,12,,,,,53.114688292029314,,,,,,,,,,,,,,,,,,,,,,,,53.109154500067234,53.114688292029314,55.107600082992576,55.10767262498848,55.113586292020045,55.113586292020045,55.542740583070554,q,1,0.42447974905371666,None,55.54288354201708,55.54825504205655,56.56960004195571,56.54100491700228,,,,,,,,,,330,001,,,behavioral,2026-05-27_14h54.25.718,encodingtask,,2025.2.4,None,2026-05-27 14h54.25.975610 -0400,
1,13,13,0,stimuli/scenes/JA_1.jpg,Jungle,Malbow,stimuli/items/jungle_animal_16.png,Jungle,animal,sc,stimuli/integrated/jungle_a_jungle_animal_16.jpg,stimuli/recalled/recalled_jungle_a_jungle_animal_16.jpg,q,1,0.6985858330735937,None,0,0,0,0,0,13,13,13,,,,,56.56960004195571,,,,,,,,,,,,,,,,,,,,,,,,56.56385987496469,56.56960004195571,58.54711387504358,58.547179999994114,58.557384000043385,58.557384000043385,59.25877854204737,q,1,0.6985858330735937,None,59.25889187504072,59.26414016704075,60.28486995806452,60.25785087503027,,,,,,,,,,330,001,,,behavioral,2026-05-27_14h54.25.718,encodingtask,,2025.2.4,None,2026-05-27 14h54.25.975610 -0400,
1,14,14,0,stimuli/scenes/UA_1.jpg,Undersea,Tulon,stimuli/items/jungle_object_3.png,Jungle,object,si,stimuli/integrated/ocean_a_jungle_object_3.jpg,stimuli/recalled/recalled_ocean_a_jungle_object_3.jpg,p,1,0.5287132080411538,None,0,0,0,0,0,14,14,14,,,,,60.28486995806452,,,,,,,,,,,,,,,,,,,,,,,,60.27895870804787,60.28486995806452,62.26354487496428,62.26363445806783,62.27428820799105,62.27428820799105,62.8088858750416,p,1,0.5287132080411538,None,62.80900437501259,62.81479033303913,63.838049167068675,63.80805766698904,,,,,,,,,,330,001,,,behavioral,2026-05-27_14h54.25.718,encodingtask,,2025.2.4,None,2026-05-27 14h54.25.975610 -0400,
1,15,15,0,stimuli/scenes/JA_1.jpg,Jungle,Malbow,stimuli/items/undersea_animal_15.png,Undersea,animal,si,stimuli/integrated/jungle_a_undersea_animal_15.jpg,stimuli/recalled/recalled_jungle_a_undersea_animal_15.jpg,p,1,0.2805324998917058,None,0,0,0,0,0,15,15,15,,,,,63.838049167068675,,,,,,,,,,,,,,,,,,,,,,,,63.83268245798536,63.838049167068675,65.8132882079808,65.81338870804757,65.8242475000443,65.8242475000443,66.10884750005789,p,1,0.2805324998917058,None,66.10900058306288,66.11478850001004,67.14089666702785,67.10779929195996,,,,,,,,,,330,001,,,behavioral,2026-05-27_14h54.25.718,encodingtask,,2025.2.4,None,2026-05-27 14h54.25.975610 -0400,
1,16,16,0,stimuli/scenes/JB_1.jpg,Jungle,Negvi,stimuli/items/undersea_animal_19.png,Undersea,animal,si,stimuli/integrated/jungle_b_undersea_animal_19.jpg,stimuli/recalled/recalled_jungle_b_undersea_animal_19.jpg,None,0,,,0,0,0,0,0,16,16,16,,,,,67.14089666702785,,,,,,,,,,,,,,,,,,,,,,,,67.13521216704976,67.14089666702785,69.11273012496531,69.1128459169995,69.12401633302215,69.12401633302215,70.10699283296708,None,0,,,70.10709020798095,70.1119598330697,71.12167625001166,71.09605612501036,,70.1119598330697,70.1119598330697,,,,,,,330,001,,,behavioral,2026-05-27_14h54.25.718,encodingtask,,2025.2.4,None,2026-05-27 14h54.25.975610 -0400,
1,17,17,0,stimuli/scenes/JA_1.jpg,Jungle,Malbow,stimuli/items/undersea_object_15.png,Undersea,object,si,stimuli/integrated/jungle_a_undersea_object_15.jpg,stimuli/recalled/recalled_jungle_a_undersea_object_15.jpg,p,1,0.2473971659783274,None,0,0,0,0,0,17,17,17,,,,,71.12167625001166,,,,,,,,,,,,,,,,,,,,,,,,71.11593550001271,71.12167625001166,73.10754179197829,73.1075902080629,73.11267816706095,73.11267816706095,73.36424966703635,p,1,0.2473971659783274,None,73.36436120804865,73.37855645804666,74.38748758297879,74.36346783302724,73.11267816706095,,,,,,,,,330,001,,,behavioral,2026-05-27_14h54.25.718,encodingtask,,2025.2.4,None,2026-05-27 14h54.25.975610 -0400,
1,18,18,0,stimuli/scenes/UA_1.jpg,Undersea,Tulon,stimuli/items/undersea_object_16.png,Undersea,object,sc,stimuli/integrated/ocean_a_undersea_object_16.jpg,stimuli/recalled/recalled_ocean_a_undersea_object_16.jpg,q,1,0.3342852919595316,None,0,0,0,0,0,18,18,18,,,,,74.38748758297879,,,,,,,,,,,,,,,,,,,,,,,,74.38210516702384,74.38748758297879,76.37413679203019,76.37421041703783,76.37965483299922,76.37965483299922,76.72569270804524,q,1,0.3342852919595316,None,76.72589787503239,76.73683725006413,77.75548208307009,77.72442591702566,,,,,,,,,,330,001,,,behavioral,2026-05-27_14h54.25.718,encodingtask,,2025.2.4,None,2026-05-27 14h54.25.975610 -0400,
1,19,19,0,stimuli/scenes/JA_1.jpg,Jungle,Malbow,stimuli/items/undersea_object_9.png,Undersea,object,si,stimuli/integrated/jungle_a_undersea_object_9.jpg,stimuli/recalled/recalled_jungle_a_undersea_object_9.jpg,p,1,0.41021591599565,None,0,0,0,0,0,19,19,19,,,,,77.75548208307009,,,,,,,,,,,,,,,,,,,,,,,,77.74963745800778,77.75548208307009,79.72941533301491,79.7294907500036,79.74064554204233,79.74064554204233,80.15872437506914,p,1,0.41021591599565,None,80.15884412499145,80.16879616701044,81.18517941702157,81.15770099998917,,,,,,,,,,330,001,,,behavioral,2026-05-27_14h54.25.718,encodingtask,,2025.2.4,None,2026-05-27 14h54.25.975610 -0400,
1,20,20,0,stimuli/scenes/UA_1.jpg,Undersea,Tulon,stimuli/items/undersea_animal_16.png,Undersea,animal,sc,stimuli/integrated/ocean_a_undersea_animal_16.jpg,stimuli/recalled/recalled_ocean_a_undersea_animal_16.jpg,q,1,0.7318490000907332,None,0,0,0,0,0,20,20,20,,,,,81.18517941702157,,,,,,,,,,,,,,,,,,,,,,,,81.17953808302991,81.18517941702157,83.16320025001187,83.1632820829982,83.17397433298174,83.17397433298174,83.90886029205285,q,1,0.7318490000907332,None,83.9089627499925,83.91407212498598,84.93355258298106,84.90753504203167,,,,,,,,,,330,001,,,behavioral,2026-05-27_14h54.25.718,encodingtask,,2025.2.4,None,2026-05-27 14h54.25.975610 -0400,
1,21,21,0,stimuli/scenes/JA_1.jpg,Jungle,Malbow,stimuli/items/undersea_animal_14.png,Undersea,animal,si,stimuli/integrated/jungle_a_undersea_animal_14.jpg,stimuli/recalled/recalled_jungle_a_undersea_animal_14.jpg,p,1,0.47251516592223197,None,0,0,0,0,0,21,21,21,,,,,84.93355258298106,,,,,,,,,,,,,,,,,,,,,,,,84.92827508295886,84.93355258298106,86.91260375001002,86.91266095801257,86.92400066705886,86.92400066705886,87.40861237503123,p,1,0.47251516592223197,None,87.40872220799793,87.41823841701262,88.43923020805232,88.40741329197772,,,,,,,,,,330,001,,,behavioral,2026-05-27_14h54.25.718,encodingtask,,2025.2.4,None,2026-05-27 14h54.25.975610 -0400,
1,22,22,0,stimuli/scenes/UA_1.jpg,Undersea,Tulon,stimuli/items/undersea_animal_13.png,Undersea,animal,sc,stimuli/integrated/ocean_a_undersea_animal_13.jpg,stimuli/recalled/recalled_ocean_a_undersea_animal_13.jpg,q,1,0.40459087502676994,None,0,0,0,0,0,22,22,22,,,,,88.43923020805232,,,,,,,,,,,,,,,,,,,,,,,,88.43372566706967,88.43923020805232,90.41313495801296,90.41322633298114,90.42397237499245,90.42397237499245,90.83028620795812,q,1,0.40459087502676994,None,90.83040791703388,90.84508695802651,91.85728433297481,91.8289479999803,,,,,,,,,,330,001,,,behavioral,2026-05-27_14h54.25.718,encodingtask,,2025.2.4,None,2026-05-27 14h54.25.975610 -0400,
1,23,23,0,stimuli/scenes/JA_1.jpg,Jungle,Malbow,stimuli/items/jungle_object_12.png,Jungle,object,sc,stimuli/integrated/jungle_a_jungle_object_12.jpg,stimuli/recalled/recalled_jungle_a_jungle_object_12.jpg,q,1,0.301254624966532,None,0,0,0,0,0,23,23,23,,,,,91.85728433297481,,,,,,,,,,,,,,,,,,,,,,,,91.85146320797503,91.85728433297481,93.84065200004261,93.84072750003543,93.84623424999882,93.84623424999882,94.15777512500063,q,1,0.301254624966532,None,94.1579003330553,94.16585241700523,95.18419991701376,95.15761354204733,,,,,,,,,,330,001,,,behavioral,2026-05-27_14h54.25.718,encodingtask,,2025.2.4,None,2026-05-27 14h54.25.975610 -0400,
1,24,24,0,stimuli/scenes/UB_1.jpg,Undersea,Somar,stimuli/items/jungle_animal_18.png,Jungle,animal,si,stimuli/integrated/ocean_b_jungle_animal_18.jpg,stimuli/recalled/recalled_ocean_b_jungle_animal_18.jpg,p,1,0.4696369579760358,None,0,0,0,0,0,24,24,24,,,,,95.18419991701376,,,,,,,,,,,,,,,,,,,,,,,,95.17831104202196,95.18419991701376,97.16331054200418,97.16337425005622,97.17371012503281,97.17371012503281,97.64681341696996,p,1,0.4696369579760358,None,97.6469274580013,97.6740678329952,,98.65732883301098,,,,,,,,,,330,001,,,behavioral,2026-05-27_14h54.25.718,encodingtask,,2025.2.4,None,2026-05-27 14h54.25.975610 -0400,
1,25,25,0,stimuli/scenes/JB_1.jpg,Jungle,Negvi,stimuli/items/undersea_animal_18.png,Undersea,animal,si,stimuli/integrated/jungle_b_undersea_animal_18.jpg,stimuli/recalled/recalled_jungle_b_undersea_animal_18.jpg,None,0,,,0,0,0,0,0,25,25,25,,,,,98.68156908301171,,,,,,,,,,,,,,,,,,,,,,,,98.67618987499736,98.68156908301171,100.65757591696456,100.6576427500695,100.66240050003398,100.66240050003398,101.64589508296922,None,0,,,101.6459801250603,101.65717008302454,102.66505887499079,102.64089004206471,,101.65717008302454,101.65717008302454,,,,,,,330,001,,,behavioral,2026-05-27_14h54.25.718,encodingtask,,2025.2.4,None,2026-05-27 14h54.25.975610 -0400,
1,26,26,0,stimuli/scenes/UB_1.jpg,Undersea,Somar,stimuli/items/undersea_animal_5.png,Undersea,animal,sc,stimuli/integrated/ocean_b_undersea_animal_5.jpg,stimuli/recalled/recalled_ocean_b_undersea_animal_5.jpg,q,1,0.5520869579631835,None,0,0,0,0,0,26,26,26,,,,,102.66505887499079,,,,,,,,,,,,,,,,,,,,,,,,102.65903183305636,102.66505887499079,104.65721187496092,104.65728487505112,104.66275641706306,104.66275641706306,105.22516804200131,q,1,0.5520869579631835,None,105.22527945798356,105.23596033302601,106.24846200004686,106.22427116706967,,,,,,,,,,330,001,,,behavioral,2026-05-27_14h54.25.718,encodingtask,,2025.2.4,None,2026-05-27 14h54.25.975610 -0400,
1,27,27,0,stimuli/scenes/JB_1.jpg,Jungle,Negvi,stimuli/items/jungle_animal_11.png,Jungle,animal,sc,stimuli/integrated/jungle_b_jungle_animal_11.jpg,stimuli/recalled/recalled_jungle_b_jungle_animal_11.jpg,q,1,0.2723797910148278,None,0,0,0,0,0,27,27,27,,,,,106.24846200004686,,,,,,,,,,,,,,,,,,,,,,,,106.24314758297987,106.24846200004686,108.22961029200815,108.22970250004437,108.24034904199652,108.24034904199652,108.52540220797528,q,1,0.2723797910148278,None,108.52556866698433,108.53651216696016,109.5497193330666,109.52400962496176,,,,,,,,,,330,001,,,behavioral,2026-05-27_14h54.25.718,encodingtask,,2025.2.4,None,2026-05-27 14h54.25.975610 -0400,
1,28,28,0,stimuli/scenes/UB_1.jpg,Undersea,Somar,stimuli/items/jungle_object_1.png,Jungle,object,si,stimuli/integrated/ocean_b_jungle_object_1.jpg,stimuli/recalled/recalled_ocean_b_jungle_object_1.jpg,p,1,0.8343241249676794,None,0,0,0,0,0,28,28,28,,,,,109.5497193330666,,,,,,,,,,,,,,,,,,,,,,,,109.54380295798182,109.5497193330666,111.5289536670316,111.5290040000109,111.5404173330171,111.5404173330171,112.38075337500777,p,1,0.8343241249676794,None,112.38087187497877,112.3956299170386,113.40602991706692,113.37919725000393,,,,,,,,,,330,001,,,behavioral,2026-05-27_14h54.25.718,encodingtask,,2025.2.4,None,2026-05-27 14h54.25.975610 -0400,
1,29,29,0,stimuli/scenes/UA_1.jpg,Undersea,Tulon,stimuli/items/jungle_animal_7.png,Jungle,animal,si,stimuli/integrated/ocean_a_jungle_animal_7.jpg,stimuli/recalled/recalled_ocean_a_jungle_animal_7.jpg,None,0,,,0,0,0,0,0,29,29,29,,,,,113.40602991706692,,,,,,,,,,,,,,,,,,,,,,,,113.40067908295896,113.40602991706692,115.39057754201349,115.39064424997196,115.3958952500252,115.3958952500252,116.37911945802625,None,0,,,116.37920733296778,116.39074108295608,117.40130695805419,117.37382958305534,,116.39074108295608,116.39074108295608,,,,,,,330,001,,,behavioral,2026-05-27_14h54.25.718,encodingtask,,2025.2.4,None,2026-05-27 14h54.25.975610 -0400,
1,30,30,0,stimuli/scenes/UB_1.jpg,Undersea,Somar,stimuli/items/jungle_animal_19.png,Jungle,animal,si,stimuli/integrated/ocean_b_jungle_animal_19.jpg,stimuli/recalled/recalled_ocean_b_jungle_animal_19.jpg,p,1,0.3395805830368772,None,0,0,0,0,0,30,30,30,,,,,117.40130695805419,,,,,,,,,,,,,,,,,,,,,,,,117.39527600002475,117.40130695805419,119.39056645799428,119.39062575006392,119.3949445419712,119.3949445419712,119.74092887504958,p,1,0.3395805830368772,None,119.7410089999903,119.74462849996053,120.75214054202661,120.72896741703153,,,,,,,,,,330,001,,,behavioral,2026-05-27_14h54.25.718,encodingtask,,2025.2.4,None,2026-05-27 14h54.25.975610 -0400,
1,31,31,0,stimuli/scenes/JA_1.jpg,Jungle,Malbow,stimuli/items/jungle_object_10.png,Jungle,object,sc,stimuli/integrated/jungle_a_jungle_object_10.jpg,stimuli/recalled/recalled_jungle_a_jungle_object_10.jpg,q,1,0.3491717919241637,None,0,0,0,0,0,31,31,31,,,,,120.75214054202661,,,,,,,,,,,,,,,,,,,,,,,,120.74683158297557,120.75214054202661,122.74057983304374,122.74064166704193,122.74619029206224,122.74619029206224,123.1087435419904,q,1,0.3491717919241637,None,123.10892675002106,123.11918891698588,124.12956229201518,124.10722366697155,122.74619029206224,,,,,,,,,330,001,,,behavioral,2026-05-27_14h54.25.718,encodingtask,,2025.2.4,None,2026-05-27 14h54.25.975610 -0400,
1,32,32,0,stimuli/scenes/UB_1.jpg,Undersea,Somar,stimuli/items/undersea_object_20.png,Undersea,object,sc,stimuli/integrated/ocean_b_undersea_object_20.jpg,stimuli/recalled/recalled_ocean_b_undersea_object_20.jpg,None,0,,,0,0,0,0,0,32,32,32,,,,,124.12956229201518,,,,,,,,,,,,,,,,,,,,,,,,124.12377741700038,124.12956229201518,126.11278312501963,126.11287229205482,126.12364520796109,126.12364520796109,127.10739245801233,None,0,,,127.10752237506676,127.11288891697768,128.13361320795957,128.10706045804545,,127.11288891697768,127.11288891697768,,,,,,,330,001,,,behavioral,2026-05-27_14h54.25.718,encodingtask,,2025.2.4,None,2026-05-27 14h54.25.975610 -0400,
1,33,33,0,stimuli/scenes/JB_1.jpg,Jungle,Negvi,stimuli/items/jungle_animal_6.png,Jungle,animal,sc,stimuli/integrated/jungle_b_jungle_animal_6.jpg,stimuli/recalled/recalled_jungle_b_jungle_animal_6.jpg,None,0,,,0,0,0,0,0,33,33,33,,,,,128.13361320795957,,,,,,,,,,,,,,,,,,,,,,,,128.12792179198004,128.13361320795957,130.11270295805298,130.11279158305842,130.12317279202398,130.12317279202398,131.10703725006897,None,0,,,131.10715416702442,131.11213454196695,132.11763566697482,132.09534949995577,,131.11213454196695,131.11213454196695,,,,,,,330,001,,,behavioral,2026-05-27_14h54.25.718,encodingtask,,2025.2.4,None,2026-05-27 14h54.25.975610 -0400,
1,34,34,0,stimuli/scenes/UB_1.jpg,Undersea,Somar,stimuli/items/jungle_object_2.png,Jungle,object,si,stimuli/integrated/ocean_b_jungle_object_2.jpg,stimuli/recalled/recalled_ocean_b_jungle_object_2.jpg,None,0,,,0,0,0,0,0,34,34,34,,,,,132.11763566697482,,,,,,,,,,,,,,,,,,,,,,,,132.11236866703257,132.11763566697482,134.10671724996064,134.10674191697035,134.11039054195862,134.11039054195862,135.09543287497945,None,0,,,135.0955198330339,135.10730233299546,136.1147869999986,136.0904575419845,134.11039054195862,135.10730233299546,135.10730233299546,,,,,,,330,001,,,behavioral,2026-05-27_14h54.25.718,encodingtask,,2025.2.4,None,2026-05-27 14h54.25.975610 -0400,
1,35,35,0,stimuli/scenes/JB_1.jpg,Jungle,Negvi,stimuli/items/jungle_animal_20.png,Jungle,animal,sc,stimuli/integrated/jungle_b_jungle_animal_20.jpg,stimuli/recalled/recalled_jungle_b_jungle_animal_20.jpg,None,0,,,0,0,0,0,0,35,35,35,,,,,136.1147869999986,,,,,,,,,,,,,,,,,,,,,,,,136.10897066700272,136.1147869999986,138.1070137079805,138.10706279205624,138.11188737500925,138.11188737500925,139.0957737499848,None,0,,,139.0958600420272,139.10692499997094,140.11496875004377,140.09052095806692,138.11188737500925,139.10692499997094,139.10692499997094,,,,,,,330,001,,,behavioral,2026-05-27_14h54.25.718,encodingtask,,2025.2.4,None,2026-05-27 14h54.25.975610 -0400,
1,36,36,0,stimuli/scenes/UA_1.jpg,Undersea,Tulon,stimuli/items/undersea_animal_9.png,Undersea,animal,sc,stimuli/integrated/ocean_a_undersea_animal_9.jpg,stimuli/recalled/recalled_ocean_a_undersea_animal_9.jpg,None,0,,,0,0,0,0,0,36,36,36,,,,,140.11496875004377,,,,,,,,,,,,,,,,,,,,,,,,140.10937008296605,140.11496875004377,142.10724341706373,142.10731237498112,142.11305483302567,142.11305483302567,143.1069483750034,None,0,,,143.10703575005755,143.1117525419686,144.11827279196586,144.09553183300886,142.11305483302567,143.1117525419686,143.1117525419686,,,,,,,330,001,,,behavioral,2026-05-27_14h54.25.718,encodingtask,,2025.2.4,None,2026-05-27 14h54.25.975610 -0400,
1,37,37,0,stimuli/scenes/UB_1.jpg,Undersea,Somar,stimuli/items/undersea_object_19.png,Undersea,object,sc,stimuli/integrated/ocean_b_undersea_object_19.jpg,stimuli/recalled/recalled_ocean_b_undersea_object_19.jpg,None,0,,,0,0,0,0,0,37,37,37,,,,,144.11827279196586,,,,,,,,,,,,,,,,,,,,,,,,144.1126239580335,144.11827279196586,146.1070071250433,146.10706816706806,146.11222583299968,146.11222583299968,147.09558354201727,None,0,,,147.09566491702572,147.10692262498196,148.1172714580316,148.09065458306577,146.11222583299968,147.10692262498196,147.10692262498196,,,,,,,330,001,,,behavioral,2026-05-27_14h54.25.718,encodingtask,,2025.2.4,None,2026-05-27 14h54.25.975610 -0400,
1,38,38,0,stimuli/scenes/JB_1.jpg,Jungle,Negvi,stimuli/items/jungle_object_5.png,Jungle,object,sc,stimuli/integrated/jungle_b_jungle_object_5.jpg,stimuli/recalled/recalled_jungle_b_jungle_object_5.jpg,None,0,,,0,0,0,0,0,38,38,38,,,,,148.1172714580316,,,,,,,,,,,,,,,,,,,,,,,,148.11174420802854,148.1172714580316,150.10702400002629,150.10708550002892,150.11236124997959,150.11236124997959,151.09555804205593,None,0,,,151.09564325003885,151.10663599998225,152.11413337499835,152.0902355000144,150.11236124997959,151.10663599998225,151.10663599998225,,,,,,,330,001,,,behavioral,2026-05-27_14h54.25.718,encodingtask,,2025.2.4,None,2026-05-27 14h54.25.975610 -0400,
1,39,39,0,stimuli/scenes/JA_1.jpg,Jungle,Malbow,stimuli/items/jungle_animal_14.png,Jungle,animal,sc,stimuli/integrated/jungle_a_jungle_animal_14.jpg,stimuli/recalled/recalled_jungle_a_jungle_animal_14.jpg,None,0,,,0,0,0,0,0,39,39,39,,,,,152.11413337499835,,,,,,,,,,,,,,,,,,,,,,,,152.108662292012,152.11413337499835,154.10699133295566,154.1070417079609,154.11181787506212,154.11181787506212,155.09525516699068,None,0,,,155.0953379579587,155.1068741249619,156.1159202499548,156.09019062505104,154.11181787506212,155.1068741249619,155.1068741249619,,,,,,,330,001,,,behavioral,2026-05-27_14h54.25.718,encodingtask,,2025.2.4,None,2026-05-27 14h54.25.975610 -0400,
1,40,40,0,stimuli/scenes/JB_1.jpg,Jungle,Negvi,stimuli/items/jungle_animal_8.png,Jungle,animal,sc,stimuli/integrated/jungle_b_jungle_animal_8.jpg,stimuli/recalled/recalled_jungle_b_jungle_animal_8.jpg,None,0,,,0,0,0,0,0,40,40,40,,,,,156.1159202499548,,,,,,,,,,,,,,,,,,,,,,,,156.110535374959,156.1159202499548,158.1068898329977,158.10693470796105,158.11179129197262,158.11179129197262,159.09538791701198,None,0,,,159.0954781670589,159.10661962500308,160.1103578750044,160.09046258300077,158.11179129197262,159.10661962500308,159.10661962500308,,,,,,,330,001,,,behavioral,2026-05-27_14h54.25.718,encodingtask,,2025.2.4,None,2026-05-27 14h54.25.975610 -0400,
1,41,41,0,stimuli/scenes/UB_1.jpg,Undersea,Somar,stimuli/items/undersea_object_14.png,Undersea,object,sc,stimuli/integrated/ocean_b_undersea_object_14.jpg,stimuli/recalled/recalled_ocean_b_undersea_object_14.jpg,None,0,,,0,0,0,0,0,41,41,41,,,,,160.1103578750044,,,,,,,,,,,,,,,,,,,,,,,,160.10640387504827,160.12317737506237,162.10718104196712,162.10723408299964,162.11161500005983,162.11161500005983,163.09469079202972,None,0,,,163.09476808295585,163.10658162506297,164.11907862499356,164.09063075005542,162.11161500005983,163.10658162506297,163.10658162506297,,,,,,,330,001,,,behavioral,2026-05-27_14h54.25.718,encodingtask,,2025.2.4,None,2026-05-27 14h54.25.975610 -0400,
1,42,42,0,stimuli/scenes/JB_1.jpg,Jungle,Negvi,stimuli/items/undersea_object_6.png,Undersea,object,si,stimuli/integrated/jungle_b_undersea_object_6.jpg,stimuli/recalled/recalled_jungle_b_undersea_object_6.jpg,None,0,,,0,0,0,0,0,42,42,42,,,,,164.11907862499356,,,,,,,,,,,,,,,,,,,,,,,,164.11334587505553,164.11907862499356,166.10739529202692,166.10744795796927,166.11197966698091,166.11197966698091,167.09597754199058,None,0,,,167.09606954199262,167.10708466696087,168.11756491695996,168.09018187504262,166.11197966698091,167.10708466696087,167.10708466696087,,,,,,,330,001,,,behavioral,2026-05-27_14h54.25.718,encodingtask,,2025.2.4,None,2026-05-27 14h54.25.975610 -0400,
1,43,43,0,stimuli/scenes/JA_1.jpg,Jungle,Malbow,stimuli/items/jungle_animal_2.png,Jungle,animal,sc,stimuli/integrated/jungle_a_jungle_animal_2.jpg,stimuli/recalled/recalled_jungle_a_jungle_animal_2.jpg,None,0,,,0,0,0,0,0,43,43,43,,,,,168.11756491695996,,,,,,,,,,,,,,,,,,,,,,,,168.11174837499857,168.11756491695996,170.10720945801586,170.1072564580245,170.1119025000371,170.1119025000371,171.0949224580545,None,0,,,171.09499491704628,171.106566958013,172.1154583330499,172.09060395800043,170.1119025000371,171.106566958013,171.106566958013,,,,,,,330,001,,,behavioral,2026-05-27_14h54.25.718,encodingtask,,2025.2.4,None,2026-05-27 14h54.25.975610 -0400,
1,44,44,0,stimuli/scenes/JB_1.jpg,Jungle,Negvi,stimuli/items/jungle_animal_12.png,Jungle,animal,sc,stimuli/integrated/jungle_b_jungle_animal_12.jpg,stimuli/recalled/recalled_jungle_b_jungle_animal_12.jpg,None,0,,,0,0,0,0,0,44,44,44,,,,,172.1154583330499,,,,,,,,,,,,,,,,,,,,,,,,172.10976274998393,172.1154583330499,174.10686170798726,174.10690708307084,174.111453874968,174.111453874968,175.0958307919791,None,0,,,175.095984625048,175.10670191701502,176.10690400004387,176.0896688749781,174.111453874968,175.10670191701502,175.10670191701502,,,,,,,330,001,,,behavioral,2026-05-27_14h54.25.718,encodingtask,,2025.2.4,None,2026-05-27 14h54.25.975610 -0400,
1,45,45,0,stimuli/scenes/UB_1.jpg,Undersea,Somar,stimuli/items/jungle_animal_5.png,Jungle,animal,si,stimuli/integrated/ocean_b_jungle_animal_5.jpg,stimuli/recalled/recalled_ocean_b_jungle_animal_5.jpg,None,0,,,0,0,0,0,0,45,45,45,,,,,176.10690400004387,,,,,,,,,,,,,,,,,,,,,,,,176.10324533306994,176.1229764999589,178.10584212502,178.10591329203453,178.11101891705766,178.11101891705766,179.09391354199033,None,0,,,179.09420454199426,179.10656195797492,180.14504291699268,180.09057466697413,178.11101891705766,179.10656195797492,179.10656195797492,,,,,,,330,001,,,behavioral,2026-05-27_14h54.25.718,encodingtask,,2025.2.4,None,2026-05-27 14h54.25.975610 -0400,
1,46,46,0,stimuli/scenes/JB_1.jpg,Jungle,Negvi,stimuli/items/undersea_animal_17.png,Undersea,animal,si,stimuli/integrated/jungle_b_undersea_animal_17.jpg,stimuli/recalled/recalled_jungle_b_undersea_animal_17.jpg,None,0,,,0,0,0,0,0,46,46,46,,,,,180.14504291699268,,,,,,,,,,,,,,,,,,,,,,,,180.13531250006054,180.14504291699268,182.1112069580704,182.11137983296067,182.12236024998128,182.12236024998128,183.1056177080609,None,0,,,183.10579462500755,183.11149470799137,184.11780095798895,184.09476320806425,,183.11149470799137,183.11149470799137,,,,,,,330,001,,,behavioral,2026-05-27_14h54.25.718,encodingtask,,2025.2.4,None,2026-05-27 14h54.25.975610 -0400,
1,47,47,0,stimuli/scenes/UB_1.jpg,Undersea,Somar,stimuli/items/jungle_object_14.png,Jungle,object,si,stimuli/integrated/ocean_b_jungle_object_14.jpg,stimuli/recalled/recalled_ocean_b_jungle_object_14.jpg,None,0,,,0,0,0,0,0,47,47,47,,,,,184.11780095798895,,,,,,,,,,,,,,,,,,,,,,,,184.11226750002243,184.11780095798895,186.1072194169974,186.10742487502284,186.11510583304334,186.11510583304334,187.10692399996333,None,0,,,187.10717116703745,187.11048154206946,188.13185345800593,188.09503979200963,186.11510583304334,187.11048154206946,187.11048154206946,,,,,,,330,001,,,behavioral,2026-05-27_14h54.25.718,encodingtask,,2025.2.4,None,2026-05-27 14h54.25.975610 -0400,
1,48,48,0,stimuli/scenes/JB_1.jpg,Jungle,Negvi,stimuli/items/jungle_object_20.png,Jungle,object,sc,stimuli/integrated/jungle_b_jungle_object_20.jpg,stimuli/recalled/recalled_jungle_b_jungle_object_20.jpg,None,0,,,0,0,0,0,0,48,48,48,,,,,188.13185345800593,,,,,,,,,,,,,,,,,,,,,,,,188.12615083297715,188.13185345800593,190.11170500004664,190.11176937504206,190.1232916250592,190.1232916250592,191.106626917026,None,0,,,191.10671170800924,191.1119692500215,192.11947666702326,192.09592650004197,,191.1119692500215,191.1119692500215,,,,,,,330,001,,,behavioral,2026-05-27_14h54.25.718,encodingtask,,2025.2.4,None,2026-05-27 14h54.25.975610 -0400,
1,49,49,0,stimuli/scenes/UA_1.jpg,Undersea,Tulon,stimuli/items/undersea_object_8.png,Undersea,object,sc,stimuli/integrated/ocean_a_undersea_object_8.jpg,stimuli/recalled/recalled_ocean_a_undersea_object_8.jpg,None,0,,,0,0,0,0,0,49,49,49,,,,,192.11947666702326,,,,,,,,,,,,,,,,,,,,,,,,192.1139995419653,192.11947666702326,194.10665891703684,194.1067055000458,194.11091541696806,194.11091541696806,195.09409958298784,None,0,,,195.09414716705214,195.10643279203214,196.1142031250056,196.09046079206746,194.11091541696806,195.10643279203214,195.10643279203214,,,,,,,330,001,,,behavioral,2026-05-27_14h54.25.718,encodingtask,,2025.2.4,None,2026-05-27 14h54.25.975610 -0400,
1,50,50,0,stimuli/scenes/JB_1.jpg,Jungle,Negvi,stimuli/items/undersea_object_2.png,Undersea,object,si,stimuli/integrated/jungle_b_undersea_object_2.jpg,stimuli/recalled/recalled_jungle_b_undersea_object_2.jpg,None,0,,,0,0,0,0,0,50,50,50,,,,,196.1142031250056,,,,,,,,,,,,,,,,,,,,,,,,196.10836808301974,196.1142031250056,198.10694116703235,198.1070182500407,198.11145845800638,198.11145845800638,199.1058750420343,None,0,,,199.10597583302297,199.110754708061,200.11153062502854,200.09503291698638,198.11145845800638,199.110754708061,199.110754708061,,,,,,,330,001,,,behavioral,2026-05-27_14h54.25.718,encodingtask,,2025.2.4,None,2026-05-27 14h54.25.975610 -0400,
1,51,51,0,stimuli/scenes/UA_1.jpg,Undersea,Tulon,stimuli/items/jungle_animal_13.png,Jungle,animal,si,stimuli/integrated/ocean_a_jungle_animal_13.jpg,stimuli/recalled/recalled_ocean_a_jungle_animal_13.jpg,None,0,,,0,0,0,0,0,51,51,51,,,,,200.11153062502854,,,,,,,,,,,,,,,,,,,,,,,,200.10662554204464,200.11153062502854,202.0953913750127,202.095439500059,202.10636191698723,202.10636191698723,203.08999837504234,None,0,,,203.09008145797998,203.1062634170521,204.11735570803285,204.09033529204316,202.10636191698723,203.09512287506368,203.09512287506368,,,,,,,330,001,,,behavioral,2026-05-27_14h54.25.718,encodingtask,,2025.2.4,None,2026-05-27 14h54.25.975610 -0400,
1,52,52,0,stimuli/scenes/JB_1.jpg,Jungle,Negvi,stimuli/items/jungle_object_17.png,Jungle,object,sc,stimuli/integrated/jungle_b_jungle_object_17.jpg,stimuli/recalled/recalled_jungle_b_jungle_object_17.jpg,None,0,,,0,0,0,0,0,52,52,52,,,,,204.11735570803285,,,,,,,,,,,,,,,,,,,,,,,,204.1120013750624,204.11735570803285,206.10672929196153,206.10678862500936,206.11238137504552,206.11238137504552,207.10561550001148,None,0,,,207.10568050004076,207.11081937502604,208.12871099996846,208.09476025006734,206.11238137504552,207.11081937502604,207.11081937502604,,,,,,,330,001,,,behavioral,2026-05-27_14h54.25.718,encodingtask,,2025.2.4,None,2026-05-27 14h54.25.975610 -0400,
1,53,53,0,stimuli/scenes/UA_1.jpg,Undersea,Tulon,stimuli/items/jungle_object_11.png,Jungle,object,si,stimuli/integrated/ocean_a_jungle_object_11.jpg,stimuli/recalled/recalled_ocean_a_jungle_object_11.jpg,None,0,,,0,0,0,0,0,53,53,53,,,,,208.12871099996846,,,,,,,,,,,,,,,,,,,,,,,,208.1229665420251,208.12871099996846,210.11194012500346,210.11225450003985,210.12268441705965,210.12268441705965,211.10590362502262,None,0,,,211.1060145420488,211.10973312496208,212.11457416706253,212.09548100002576,,211.10973312496208,211.10973312496208,,,,,,,330,001,,,behavioral,2026-05-27_14h54.25.718,encodingtask,,2025.2.4,None,2026-05-27 14h54.25.975610 -0400,
1,54,54,0,stimuli/scenes/JB_1.jpg,Jungle,Negvi,stimuli/items/undersea_object_18.png,Undersea,object,si,stimuli/integrated/jungle_b_undersea_object_18.jpg,stimuli/recalled/recalled_jungle_b_undersea_object_18.jpg,None,0,,,0,0,0,0,0,54,54,54,,,,,212.11457416706253,,,,,,,,,,,,,,,,,,,,,,,,212.1097220829688,212.11457416706253,214.10636441700626,214.10641408304218,214.11174516705796,214.11174516705796,215.09519737504888,None,0,,,215.09533966705203,215.10643866704777,216.11873412504792,216.0899475000333,214.11174516705796,215.10643866704777,215.10643866704777,,,,,,,330,001,,,behavioral,2026-05-27_14h54.25.718,encodingtask,,2025.2.4,None,2026-05-27 14h54.25.975610 -0400,
1,55,55,0,stimuli/scenes/JA_1.jpg,Jungle,Malbow,stimuli/items/undersea_animal_4.png,Undersea,animal,si,stimuli/integrated/jungle_a_undersea_animal_4.jpg,stimuli/recalled/recalled_jungle_a_undersea_animal_4.jpg,None,0,,,0,0,0,0,0,55,55,55,,,,,216.11873412504792,,,,,,,,,,,,,,,,,,,,,,,,216.11332195799332,216.11873412504792,218.10647966701072,218.10651945800055,218.1106209170539,218.1106209170539,219.09550195804331,None,0,,,219.09559487504885,219.10634483303875,220.11671679199208,220.08984500006773,218.1106209170539,219.10634483303875,219.10634483303875,,,,,,,330,001,,,behavioral,2026-05-27_14h54.25.718,encodingtask,,2025.2.4,None,2026-05-27 14h54.25.975610 -0400,
1,56,56,0,stimuli/scenes/JB_1.jpg,Jungle,Negvi,stimuli/items/undersea_animal_1.png,Undersea,animal,si,stimuli/integrated/jungle_b_undersea_animal_1.jpg,stimuli/recalled/recalled_jungle_b_undersea_animal_1.jpg,None,0,,,0,0,0,0,0,56,56,56,,,,,220.11671679199208,,,,,,,,,,,,,,,,,,,,,,,,220.11095216695685,220.11671679199208,222.1064919170458,222.1065333749866,222.110748957959,222.110748957959,223.09490583301522,None,0,,,223.09499091701582,223.10611504199915,224.12011833302677,224.08972841699142,222.110748957959,223.10611504199915,223.10611504199915,,,,,,,330,001,,,behavioral,2026-05-27_14h54.25.718,encodingtask,,2025.2.4,None,2026-05-27 14h54.25.975610 -0400,
1,57,57,0,stimuli/scenes/UA_1.jpg,Undersea,Tulon,stimuli/items/jungle_animal_15.png,Jungle,animal,si,stimuli/integrated/ocean_a_jungle_animal_15.jpg,stimuli/recalled/recalled_ocean_a_jungle_animal_15.jpg,None,0,,,0,0,0,0,0,57,57,57,,,,,224.12011833302677,,,,,,,,,,,,,,,,,,,,,,,,224.11410833301488,224.12011833302677,226.1059954999946,226.10602599999402,226.11038283305243,226.11038283305243,227.09397012495901,None,0,,,227.0940317499917,227.1058885420207,228.1084293749882,228.08940775005613,226.11038283305243,227.1058885420207,227.1058885420207,,,,,,,330,001,,,behavioral,2026-05-27_14h54.25.718,encodingtask,,2025.2.4,None,2026-05-27 14h54.25.975610 -0400,
1,58,58,0,stimuli/scenes/JB_1.jpg,Jungle,Negvi,stimuli/items/jungle_object_8.png,Jungle,object,sc,stimuli/integrated/jungle_b_jungle_object_8.jpg,stimuli/recalled/recalled_jungle_b_jungle_object_8.jpg,None,0,,,0,0,0,0,0,58,58,58,,,,,228.1084293749882,,,,,,,,,,,,,,,,,,,,,,,,228.1047749579884,228.1224408330163,230.10631441697478,230.10635395802092,230.11073045805097,230.11073045805097,231.09430833300576,None,0,,,231.09436874999665,231.1061231669737,232.10949487506878,232.0896580000408,230.11073045805097,231.1061231669737,231.1061231669737,,,,,,,330,001,,,behavioral,2026-05-27_14h54.25.718,encodingtask,,2025.2.4,None,2026-05-27 14h54.25.975610 -0400,
1,59,59,0,stimuli/scenes/UB_1.jpg,Undersea,Somar,stimuli/items/jungle_object_18.png,Jungle,object,si,stimuli/integrated/ocean_b_jungle_object_18.jpg,stimuli/recalled/recalled_ocean_b_jungle_object_18.jpg,None,0,,,0,0,0,0,0,59,59,59,,,,,232.10949487506878,,,,,,,,,,,,,,,,,,,,,,,,232.10367345798295,232.12226529198233,234.1059270000551,234.1059587500058,234.10979179199785,234.10979179199785,235.09367754205596,None,0,,,235.09373516705818,235.1055751669919,236.10702287498862,236.08933216705918,234.10979179199785,235.1055751669919,235.1055751669919,,,,,,,330,001,,,behavioral,2026-05-27_14h54.25.718,encodingtask,,2025.2.4,None,2026-05-27 14h54.25.975610 -0400,
1,60,60,0,stimuli/scenes/JA_1.jpg,Jungle,Malbow,stimuli/items/jungle_object_4.png,Jungle,object,sc,stimuli/integrated/jungle_a_jungle_object_4.jpg,stimuli/recalled/recalled_jungle_a_jungle_object_4.jpg,None,0,,,0,0,0,0,0,60,60,60,,,,,236.10702287498862,,,,,,,,,,,,,,,,,,,,,,,,236.10333266702946,236.12240983301308,238.1064145420678,238.10646533302497,238.11193891696166,238.11193891696166,239.1062087500468,None,0,,,239.1062815419864,239.11088991700672,240.11822220799513,240.0948592920322,238.11193891696166,239.11088991700672,239.11088991700672,,,,,,,330,001,,,behavioral,2026-05-27_14h54.25.718,encodingtask,,2025.2.4,None,2026-05-27 14h54.25.975610 -0400,
1,61,61,0,stimuli/scenes/UB_1.jpg,Undersea,Somar,stimuli/items/jungle_animal_10.png,Jungle,animal,si,stimuli/integrated/ocean_b_jungle_animal_10.jpg,stimuli/recalled/recalled_ocean_b_jungle_animal_10.jpg,None,0,,,0,0,0,0,0,61,61,61,,,,,240.11822220799513,,,,,,,,,,,,,,,,,,,,,,,,240.112513625063,240.11822220799513,242.10621179197915,242.10625362501014,242.1115412079962,242.1115412079962,243.09593154198956,None,0,,,243.0960122080287,243.10622187505942,244.11403391696513,244.08977950003464,242.1115412079962,243.10622187505942,243.10622187505942,,,,,,,330,001,,,behavioral,2026-05-27_14h54.25.718,encodingtask,,2025.2.4,None,2026-05-27 14h54.25.975610 -0400,
1,62,62,0,stimuli/scenes/JA_1.jpg,Jungle,Malbow,stimuli/items/undersea_object_10.png,Undersea,object,si,stimuli/integrated/jungle_a_undersea_object_10.jpg,stimuli/recalled/recalled_jungle_a_undersea_object_10.jpg,None,0,,,0,0,0,0,0,62,62,62,,,,,244.11403391696513,,,,,,,,,,,,,,,,,,,,,,,,244.10844829201233,244.11403391696513,246.10584637499414,246.10587500000838,246.11038762505632,246.11038762505632,247.09392062504776,None,0,,,247.09399741701782,247.1059453750495,248.1091082500061,248.089235582971,246.11038762505632,247.1059453750495,247.1059453750495,,,,,,,330,001,,,behavioral,2026-05-27_14h54.25.718,encodingtask,,2025.2.4,None,2026-05-27 14h54.25.975610 -0400,
1,63,63,0,stimuli/scenes/UA_1.jpg,Undersea,Tulon,stimuli/items/undersea_animal_7.png,Undersea,animal,sc,stimuli/integrated/ocean_a_undersea_animal_7.jpg,stimuli/recalled/recalled_ocean_a_undersea_animal_7.jpg,None,0,,,0,0,0,0,0,63,63,63,,,,,248.1091082500061,,,,,,,,,,,,,,,,,,,,,,,,248.105328500038,248.1224793329602,250.10625041706953,250.1063057499705,250.11220391700044,250.11220391700044,251.1061657500686,None,0,,,251.10625220800284,251.1111943749711,252.12158875004388,252.09484779206105,250.11220391700044,251.1111943749711,251.1111943749711,,,,,,,330,001,,,behavioral,2026-05-27_14h54.25.718,encodingtask,,2025.2.4,None,2026-05-27 14h54.25.975610 -0400,
1,64,64,0,stimuli/scenes/JA_1.jpg,Jungle,Malbow,stimuli/items/undersea_object_13.png,Undersea,object,si,stimuli/integrated/jungle_a_undersea_object_13.jpg,stimuli/recalled/recalled_jungle_a_undersea_object_13.jpg,None,0,,,0,0,0,0,0,64,64,64,,,,,252.12158875004388,,,,,,,,,,,,,,,,,,,,,,,,252.11584833299275,252.12158875004388,254.10604229196906,254.1060815419769,254.11071762500796,254.11071762500796,255.1061741670128,None,0,,,255.10624512506183,255.1104840419721,256.1130087500205,256.09409012505785,254.11071762500796,255.1104840419721,255.1104840419721,,,,,,,330,001,,,behavioral,2026-05-27_14h54.25.718,encodingtask,,2025.2.4,None,2026-05-27 14h54.25.975610 -0400,
1,65,65,0,stimuli/scenes/UA_1.jpg,Undersea,Tulon,stimuli/items/jungle_animal_3.png,Jungle,animal,si,stimuli/integrated/ocean_a_jungle_animal_3.jpg,stimuli/recalled/recalled_ocean_a_jungle_animal_3.jpg,None,0,,,0,0,0,0,0,65,65,65,,,,,256.1130087500205,,,,,,,,,,,,,,,,,,,,,,,,256.10827879200224,256.1130087500205,258.1062254999997,258.1062775000464,258.1112943330081,258.1112943330081,259.0949873330537,None,0,,,259.09507254196797,259.1058569169836,260.11168620805256,260.0893682499882,258.1112943330081,259.1058569169836,259.1058569169836,,,,,,,330,001,,,behavioral,2026-05-27_14h54.25.718,encodingtask,,2025.2.4,None,2026-05-27 14h54.25.975610 -0400,
1,66,66,0,stimuli/scenes/UB_1.jpg,Undersea,Somar,stimuli/items/undersea_animal_20.png,Undersea,animal,sc,stimuli/integrated/ocean_b_undersea_animal_20.jpg,stimuli/recalled/recalled_ocean_b_undersea_animal_20.jpg,None,0,,,0,0,0,0,0,66,66,66,,,,,260.11168620805256,,,,,,,,,,,,,,,,,,,,,,,,260.10618179198354,260.11168620805256,262.0954323330661,262.09548191702925,262.10574266698677,262.10574266698677,263.08946416701656,None,0,,,263.089543582988,263.1058335000416,264.1164179999614,264.0894297079649,262.10574266698677,263.0944155000616,263.0944155000616,,,,,,,330,001,,,behavioral,2026-05-27_14h54.25.718,encodingtask,,2025.2.4,None,2026-05-27 14h54.25.975610 -0400,
1,67,67,0,stimuli/scenes/JA_1.jpg,Jungle,Malbow,stimuli/items/jungle_animal_4.png,Jungle,animal,sc,stimuli/integrated/jungle_a_jungle_animal_4.jpg,stimuli/recalled/recalled_jungle_a_jungle_animal_4.jpg,None,0,,,0,0,0,0,0,67,67,67,,,,,264.1164179999614,,,,,,,,,,,,,,,,,,,,,,,,264.1108042499982,264.1164179999614,266.10601133306045,266.10607087495737,266.1115283330437,266.1115283330437,267.1057631250005,None,0,,,267.10583333298564,267.1104497920023,268.1186276669614,268.0945163749857,266.1115283330437,267.1104497920023,267.1104497920023,,,,,,,330,001,,,behavioral,2026-05-27_14h54.25.718,encodingtask,,2025.2.4,None,2026-05-27 14h54.25.975610 -0400,
1,68,68,0,stimuli/scenes/UB_1.jpg,Undersea,Somar,stimuli/items/undersea_animal_6.png,Undersea,animal,sc,stimuli/integrated/ocean_b_undersea_animal_6.jpg,stimuli/recalled/recalled_ocean_b_undersea_animal_6.jpg,None,0,,,0,0,0,0,0,68,68,68,,,,,268.1186276669614,,,,,,,,,,,,,,,,,,,,,,,,268.11223783297464,268.1186276669614,270.10594308306463,270.1059891670011,270.1112047920469,270.1112047920469,271.0947260829853,None,0,,,271.0948230830254,271.10576104198117,272.11511533299927,272.08931958302855,270.1112047920469,271.10576104198117,271.10576104198117,,,,,,,330,001,,,behavioral,2026-05-27_14h54.25.718,encodingtask,,2025.2.4,None,2026-05-27 14h54.25.975610 -0400,
1,69,69,0,stimuli/scenes/UA_1.jpg,Undersea,Tulon,stimuli/items/jungle_object_19.png,Jungle,object,si,stimuli/integrated/ocean_a_jungle_object_19.jpg,stimuli/recalled/recalled_ocean_a_jungle_object_19.jpg,None,0,,,0,0,0,0,0,69,69,69,,,,,272.11511533299927,,,,,,,,,,,,,,,,,,,,,,,,272.1092583750142,272.11511533299927,274.1060157499742,274.1060620000353,274.11011154204607,274.11011154204607,275.0949587500654,None,0,,,275.0950388329802,275.10577020805795,276.1169753749855,276.089350208058,274.11011154204607,275.10577020805795,275.10577020805795,,,,,,,330,001,,,behavioral,2026-05-27_14h54.25.718,encodingtask,,2025.2.4,None,2026-05-27 14h54.25.975610 -0400,
1,70,70,0,stimuli/scenes/UB_1.jpg,Undersea,Somar,stimuli/items/undersea_object_4.png,Undersea,object,sc,stimuli/integrated/ocean_b_undersea_object_4.jpg,stimuli/recalled/recalled_ocean_b_undersea_object_4.jpg,None,0,,,0,0,0,0,0,70,70,70,,,,,276.1169753749855,,,,,,,,,,,,,,,,,,,,,,,,276.1111363749951,276.1169753749855,278.1056825830601,278.105708957999,278.1099759580102,278.1099759580102,279.094336417038,None,0,,,279.09439562505577,279.1057089170208,280.1079036250012,280.0890226670308,278.1099759580102,279.1057089170208,279.1057089170208,,,,,,,330,001,,,behavioral,2026-05-27_14h54.25.718,encodingtask,,2025.2.4,None,2026-05-27 14h54.25.975610 -0400,
1,71,71,0,stimuli/scenes/UA_1.jpg,Undersea,Tulon,stimuli/items/undersea_object_7.png,Undersea,object,sc,stimuli/integrated/ocean_a_undersea_object_7.jpg,stimuli/recalled/recalled_ocean_a_undersea_object_7.jpg,None,0,,,0,0,0,0,0,71,71,71,,,,,280.1079036250012,,,,,,,,,,,,,,,,,,,,,,,,280.1040304580238,280.12220199999865,282.1060745830182,282.1061226250604,282.1104535830673,282.1104535830673,283.09496537502855,None,0,,,283.0950513749849,283.1056702500209,284.1165079580387,284.08951670804527,282.1104535830673,283.1056702500209,283.1056702500209,,,,,,,330,001,,,behavioral,2026-05-27_14h54.25.718,encodingtask,,2025.2.4,None,2026-05-27 14h54.25.975610 -0400,
1,72,72,0,stimuli/scenes/JA_1.jpg,Jungle,Malbow,stimuli/items/undersea_animal_8.png,Undersea,animal,si,stimuli/integrated/jungle_a_undersea_animal_8.jpg,stimuli/recalled/recalled_jungle_a_undersea_animal_8.jpg,None,0,,,0,0,0,0,0,72,72,72,,,,,284.1165079580387,,,,,,,,,,,,,,,,,,,,,,,,284.1108186249621,284.1165079580387,286.1052126670256,286.1052466670517,286.1097561670467,286.1097561670467,287.0939270000672,None,0,,,287.0940018330002,287.1057319169631,288.1080035830382,288.088580874959,286.1097561670467,287.1057319169631,287.1057319169631,,,,,,,330,001,,,behavioral,2026-05-27_14h54.25.718,encodingtask,,2025.2.4,None,2026-05-27 14h54.25.975610 -0400,
1,73,73,0,stimuli/scenes/JB_1.jpg,Jungle,Negvi,stimuli/items/undersea_animal_3.png,Undersea,animal,si,stimuli/integrated/jungle_b_undersea_animal_3.jpg,stimuli/recalled/recalled_jungle_b_undersea_animal_3.jpg,None,0,,,0,0,0,0,0,73,73,73,,,,,288.1080035830382,,,,,,,,,,,,,,,,,,,,,,,,288.1044297500048,288.12211466697045,290.10578637500294,290.1058350830572,290.1100691249594,290.1100691249594,291.0943567500217,None,0,,,291.0944277920062,291.10561316704843,292.1091043750057,292.08914158307016,290.1100691249594,291.10561316704843,291.10561316704843,,,,,,,330,001,,,behavioral,2026-05-27_14h54.25.718,encodingtask,,2025.2.4,None,2026-05-27 14h54.25.975610 -0400,
1,74,74,0,stimuli/scenes/JA_1.jpg,Jungle,Malbow,stimuli/items/jungle_object_16.png,Jungle,object,sc,stimuli/integrated/jungle_a_jungle_object_16.jpg,stimuli/recalled/recalled_jungle_a_jungle_object_16.jpg,None,0,,,0,0,0,0,0,74,74,74,,,,,292.1091043750057,,,,,,,,,,,,,,,,,,,,,,,,292.10548554197885,292.12212766706944,294.10558908304665,294.1056184170302,294.1108279170003,294.1108279170003,295.1054627080448,None,0,,,295.10551891697105,295.1091689580353,296.1125590830343,296.09495283302385,294.1108279170003,295.1091689580353,295.1091689580353,,,,,,,330,001,,,behavioral,2026-05-27_14h54.25.718,encodingtask,,2025.2.4,None,2026-05-27 14h54.25.975610 -0400,
1,75,75,0,stimuli/scenes/UB_1.jpg,Undersea,Somar,stimuli/items/jungle_animal_1.png,Jungle,animal,si,stimuli/integrated/ocean_b_jungle_animal_1.jpg,stimuli/recalled/recalled_ocean_b_jungle_animal_1.jpg,None,0,,,0,0,0,0,0,75,75,75,,,,,296.1125590830343,,,,,,,,,,,,,,,,,,,,,,,,296.10783100000117,296.1125590830343,298.1057050829986,298.1057501670439,298.11079908302054,298.11079908302054,299.0944039169699,None,0,,,299.0944944580551,299.1057161670178,300.11601958295796,300.08899550000206,298.11079908302054,299.1057161670178,299.1057161670178,,,,,,,330,001,,,behavioral,2026-05-27_14h54.25.718,encodingtask,,2025.2.4,None,2026-05-27 14h54.25.975610 -0400,
1,76,76,0,stimuli/scenes/JA_1.jpg,Jungle,Malbow,stimuli/items/jungle_object_6.png,Jungle,object,sc,stimuli/integrated/jungle_a_jungle_object_6.jpg,stimuli/recalled/recalled_jungle_a_jungle_object_6.jpg,None,0,,,0,0,0,0,0,76,76,76,,,,,300.11601958295796,,,,,,,,,,,,,,,,,,,,,,,,300.11056329205167,300.11601958295796,302.1059318330372,302.10597995796707,302.11114662501495,302.11114662501495,303.09406737505924,None,0,,,303.0941181250382,303.10492645797785,304.10862275003456,304.0887518749805,302.11114662501495,303.10492645797785,303.10492645797785,,,,,,,330,001,,,behavioral,2026-05-27_14h54.25.718,encodingtask,,2025.2.4,None,2026-05-27 14h54.25.975610 -0400,
1,77,77,0,stimuli/scenes/UA_1.jpg,Undersea,Tulon,stimuli/items/undersea_object_5.png,Undersea,object,sc,stimuli/integrated/ocean_a_undersea_object_5.jpg,stimuli/recalled/recalled_ocean_a_undersea_object_5.jpg,None,0,,,0,0,0,0,0,77,77,77,,,,,304.10862275003456,,,,,,,,,,,,,,,,,,,,,,,,304.1046093329787,304.12197924999055,306.1057125830557,306.10577045800164,306.1114108749898,306.1114108749898,307.1060109169921,None,0,,,307.106089583016,307.11080387502443,308.1261555829551,308.10541062499397,306.1114108749898,307.11080387502443,307.11080387502443,,,,,,,330,001,,,behavioral,2026-05-27_14h54.25.718,encodingtask,,2025.2.4,None,2026-05-27 14h54.25.975610 -0400,
1,78,78,0,stimuli/scenes/JB_1.jpg,Jungle,Negvi,stimuli/items/undersea_object_12.png,Undersea,object,si,stimuli/integrated/jungle_b_undersea_object_12.jpg,stimuli/recalled/recalled_jungle_b_undersea_object_12.jpg,None,0,,,0,0,0,0,0,78,78,78,,,,,308.1261555829551,,,,,,,,,,,,,,,,,,,,,,,,308.1206659580348,308.1261555829551,310.11065341706853,310.11074008303694,310.1218407920096,310.1218407920096,311.10571145801805,None,0,,,311.10578591702506,311.1102946669562,312.1210299580125,312.0942915000487,,311.1102946669562,311.1102946669562,,,,,,,330,001,,,behavioral,2026-05-27_14h54.25.718,encodingtask,,2025.2.4,None,2026-05-27 14h54.25.975610 -0400,
1,79,79,0,stimuli/scenes/JA_1.jpg,Jungle,Malbow,stimuli/items/jungle_animal_9.png,Jungle,animal,sc,stimuli/integrated/jungle_a_jungle_animal_9.jpg,stimuli/recalled/recalled_jungle_a_jungle_animal_9.jpg,None,0,,,0,0,0,0,0,79,79,79,,,,,312.1210299580125,,,,,,,,,,,,,,,,,,,,,,,,312.1157038330566,312.1210299580125,314.10589304205496,314.10593491699547,314.11111587495543,314.11111587495543,315.0936922080582,None,0,,,315.09375062503386,315.10521345806774,316.1599516670685,316.0890211670194,314.11111587495543,315.10521345806774,315.10521345806774,,,,,,,330,001,,,behavioral,2026-05-27_14h54.25.718,encodingtask,,2025.2.4,None,2026-05-27 14h54.25.975610 -0400,
,0,0,0,,,,,,,,,,,,,,,,,,,,,,0,0,0,0,316.1599516670685,,,,,,,,,,,,,,,,,,,,,,,,,,,,,,,,,,,,,,,,,,316.1123100420227,316.1123792079743,316.15132770803757,316.1599516670685,316.1599516670685,316.1599516670685,,,,,,,,,,,,
