run,thisN,thisTrialN,thisRepN,scene_stimulus,scene_cat,scene_label,canonical_item,item_cat,item_type,congruency,integrated_stimulus,recalled_stimulus,key_resp_congruency.keys,key_resp_congruency.corr,key_resp_congruency.rt,key_resp_congruency.duration,key_resp_next_run.keys,key_resp_next_run.rt,key_resp_next_run.duration,runs_trial.thisRepN,runs_trial.thisTrialN,runs_trial.thisN,runs_trial.thisIndex,trials.thisRepN,trials.thisTrialN,trials.thisN,trials.thisIndex,between_run_inst.thisRepN,between_run_inst.thisTrialN,between_run_inst.thisN,between_run_inst.thisIndex,thisRow.t,notes,get_relatedness_keys.started,get_relatedness_keys.stopped,instructions_screen.started,text_instructions.started,key_welcome.started,instructions_screen.stopped,key_welcome.keys,key_welcome.rt,key_welcome.duration,instruction_keys.started,text_keys.started,key_resp_keysInst.started,instruction_keys.stopped,key_resp_keysInst.keys,key_resp_keysInst.rt,key_resp_keysInst.duration,blank2000.started,text_2.started,text_2.stopped,blank2000.stopped,get_run_stim_list.started,get_run_stim_list.stopped,integrated_scene_presentation.started,image_integrated.started,integrated_scene_presentation.stopped,congruency_response.started,text_congruency.started,key_resp_congruency.started,text_congruency.stopped,key_resp_congruency.stopped,congruency_response.stopped,trials.key_resp_congruency.keys,trials.key_resp_congruency.corr,blank1000.started,text_8.started,text_8.stopped,blank1000.stopped,trials.key_resp_congruency.rt,trials.key_resp_congruency.duration,is_last_run.started,is_last_run.stopped,between_run_pause.started,text_run_pause.started,text_relatedness_pause.started,key_resp_next_run.started,between_run_pause.stopped,between_run_inst.key_resp_next_run.keys,between_run_inst.key_resp_next_run.rt,between_run_inst.key_resp_next_run.duration,image_integrated.stopped,participant,session,group,delay,date,expName,expVersion,psychopyVersion,frameRate,expStart,
,,,,,,,,,,,,,,,,,,,,,,,,,,,,,,,,,,0.010628708987496793,0.010692166979424655,,,,,,,,,,,,,,,,,,,,,,,,,,,,,,,,,,,,,,,,,,,,,,,,,330,001,,,2026-05-27_11h28.53.494,encodingtask,,2025.2.4,None,2026-05-27 11h28.54.742385 -0400,
,,,,,,,,,,,,,,,,,,,,,,,,,,,,,,,,,,,,0.010710792033933103,0.01974941702792421,1.0041117920191027,10.002537959022447,space,8.737317000050098,None,,,,,,,,,,,,,,,,,,,,,,,,,,,,,,,,,,,,,,,,,,330,001,,,2026-05-27_11h28.53.494,encodingtask,,2025.2.4,None,2026-05-27 11h28.54.742385 -0400,
,,,,,,,,,,,,,,,,,,,,,,,,,,,,,,,,,,,,,,,,,,,10.010680042032618,10.038292874989565,10.038292874989565,18.51693929202156,space,8.47407162503805,None,,,,,,,,,,,,,,,,,,,,,,,,,,,,,,,,,,,330,001,,,2026-05-27_11h28.53.494,encodingtask,,2025.2.4,None,2026-05-27 11h28.54.742385 -0400,
,,,,,,,,,,,,,,,,,,,,,,,,,,,,,,,,,,,,,,,,,,,,,,,,,,18.517149958992377,18.53003466699738,24.583900291996542,20.515783875016496,,,,,,,,,,,,,,,,,,,,,,,,,,,,,,,330,001,,,2026-05-27_11h28.53.494,encodingtask,,2025.2.4,None,2026-05-27 11h28.54.742385 -0400,
1,0,0,0,stimuli/scenes/UA_1.jpg,Undersea,Tulon,stimuli/items/jungle_animal_17.png,Jungle,animal,si,stimuli/integrated/ocean_a_jungle_animal_17.jpg,stimuli/recalled/recalled_ocean_a_jungle_animal_17.jpg,None,0,,,,,,0,0,0,0,0,0,0,0,,,,,24.583900291996542,,,,,,,,,,,,,,,,,,,,,,22.77567533403635,22.775767749990337,24.568264583998825,24.583900291996542,24.78155162499752,24.781585292017553,24.786463083990384,24.786463083990384,25.78522612497909,25.78522612497909,25.770876833994407,None,0,25.77100479201181,25.78522612497909,28.045028291991912,26.771189459017478,,,,,,,,,,,,,,330,001,,,2026-05-27_11h28.53.494,encodingtask,,2025.2.4,None,2026-05-27 11h28.54.742385 -0400,
1,1,1,0,stimuli/scenes/UB_1.jpg,Undersea,Somar,stimuli/items/undersea_animal_10.png,Undersea,animal,sc,stimuli/integrated/ocean_b_undersea_animal_10.jpg,stimuli/recalled/recalled_ocean_b_undersea_animal_10.jpg,None,0,,,,,,0,0,0,0,0,1,1,1,,,,,28.045028291991912,,,,,,,,,,,,,,,,,,,,,,,,28.028340084012598,28.045028291991912,28.78245495900046,28.78254275000654,28.788423124991823,28.788423124991823,,,29.78230716701364,None,0,29.78243033401668,29.78837858402403,32.03862545901211,30.77237145899562,,,,,,,,,,,,,,330,001,,,2026-05-27_11h28.53.494,encodingtask,,2025.2.4,None,2026-05-27 11h28.54.742385 -0400,
1,2,2,0,stimuli/scenes/UA_1.jpg,Undersea,Tulon,stimuli/items/jungle_object_15.png,Jungle,object,si,stimuli/integrated/ocean_a_jungle_object_15.jpg,stimuli/recalled/recalled_ocean_a_jungle_object_15.jpg,p,1,0.7945231669582427,None,,,,0,0,0,0,0,2,2,2,,,,,32.03862545901211,,,,,,,,,,,,,,,,,,,,,,,,32.02605433401186,32.03862545901211,32.78206024999963,32.78214895899873,32.78726016700966,32.78726016700966,,,33.583593208983075,p,1,33.58374866703525,33.5950503750355,35.8066684170044,34.58252275001723,0.7945231669582427,None,,,,,,,,,,,,330,001,,,2026-05-27_11h28.53.494,encodingtask,,2025.2.4,None,2026-05-27 11h28.54.742385 -0400,
1,3,3,0,stimuli/scenes/UB_1.jpg,Undersea,Somar,stimuli/items/undersea_object_1.png,Undersea,object,sc,stimuli/integrated/ocean_b_undersea_object_1.jpg,stimuli/recalled/recalled_ocean_b_undersea_object_1.jpg,q,1,0.6231943749589846,None,,,,0,0,0,0,0,3,3,3,,,,,35.8066684170044,,,,,,,,,,,,,,,,,,,,,,,,35.795155042025726,35.8066684170044,36.58771929203067,36.58780391700566,36.59856004198082,36.59856004198082,,,37.234383709030226,q,1,37.23458912502974,37.24696416698862,39.45036779198563,38.232135125028435,0.6231943749589846,None,,,,,,,,,,,,330,001,,,2026-05-27_11h28.53.494,encodingtask,,2025.2.4,None,2026-05-27 11h28.54.742385 -0400,
1,4,4,0,stimuli/scenes/UA_1.jpg,Undersea,Tulon,stimuli/items/jungle_object_13.png,Jungle,object,si,stimuli/integrated/ocean_a_jungle_object_13.jpg,stimuli/recalled/recalled_ocean_a_jungle_object_13.jpg,q,0,0.7252668329747394,None,,,,0,0,0,0,0,4,4,4,,,,,39.45036779198563,,,,,,,,,,,,,,,,,,,,,,,,39.43751550000161,39.45036779198563,40.23755416698987,40.23763525002869,40.24862045899499,40.24862045899499,,,40.98370083398186,q,0,40.98383316700347,40.995900416979566,43.50658770900918,41.98207812500186,0.7252668329747394,None,,,,,,,,,,,,330,001,,,2026-05-27_11h28.53.494,encodingtask,,2025.2.4,None,2026-05-27 11h28.54.742385 -0400,
1,5,5,0,stimuli/scenes/JB_1.jpg,Jungle,Negvi,stimuli/items/undersea_object_17.png,Undersea,object,si,stimuli/integrated/jungle_b_undersea_object_17.jpg,stimuli/recalled/recalled_jungle_b_undersea_object_17.jpg,p,1,0.6676763749564998,None,,,,0,0,0,0,0,5,5,5,,,,,43.50658770900918,,,,,,,,,,,,,,,,,,,,,,,,43.487911999982316,43.50658770900918,43.987492292013485,43.98759233398596,43.99886400002288,43.99886400002288,,,44.67313729203306,p,1,44.673282584000845,44.68630916700931,47.29363758402178,45.670204458991066,0.6676763749564998,None,,,,,,,,,,,,330,001,,,2026-05-27_11h28.53.494,encodingtask,,2025.2.4,None,2026-05-27 11h28.54.742385 -0400,
1,6,6,0,stimuli/scenes/JA_1.jpg,Jungle,Malbow,stimuli/items/undersea_object_3.png,Undersea,object,si,stimuli/integrated/jungle_a_undersea_object_3.jpg,stimuli/recalled/recalled_jungle_a_undersea_object_3.jpg,p,1,0.8265829589799978,None,,,,0,0,0,0,0,6,6,6,,,,,47.29363758402178,,,,,,,,,,,,,,,,,,,,,,,,47.27589191700099,47.29363758402178,47.68192837497918,47.68202183401445,47.688904833979905,47.688904833979905,,,48.529968291986734,p,1,48.53010033402825,48.53440549998777,50.777167959022336,49.52026966703124,0.8265829589799978,None,,,,,,,,,,,,330,001,,,2026-05-27_11h28.53.494,encodingtask,,2025.2.4,None,2026-05-27 11h28.54.742385 -0400,
1,7,7,0,stimuli/scenes/UA_1.jpg,Undersea,Tulon,stimuli/items/undersea_object_11.png,Undersea,object,sc,stimuli/integrated/ocean_a_undersea_object_11.jpg,stimuli/recalled/recalled_ocean_a_undersea_object_11.jpg,p,0,0.6290087910019793,None,,,,0,0,0,0,0,7,7,7,,,,,50.777167959022336,,,,,,,,,,,,,,,,,,,,,,,,50.76532870903611,50.777167959022336,51.53219137497945,51.53226508398075,51.53731975000119,51.53731975000119,,,52.17198325000936,p,0,52.17210349999368,52.184962125029415,54.656852083979174,53.169614334008656,0.6290087910019793,None,,,,,,,,,,,,330,001,,,2026-05-27_11h28.53.494,encodingtask,,2025.2.4,None,2026-05-27 11h28.54.742385 -0400,
1,8,8,0,stimuli/scenes/JA_1.jpg,Jungle,Malbow,stimuli/items/undersea_animal_11.png,Undersea,animal,si,stimuli/integrated/jungle_a_undersea_animal_11.jpg,stimuli/recalled/recalled_jungle_a_undersea_animal_11.jpg,p,1,0.6541238750214688,None,,,,0,0,0,0,0,8,8,8,,,,,54.656852083979174,,,,,,,,,,,,,,,,,,,,,,,,54.64395920903189,54.656852083979174,55.182018125022296,55.18211895902641,55.18799795903033,55.18799795903033,,,55.85012129199458,p,1,55.850243958993815,55.862000291992445,58.03907200001413,56.84893633401953,0.6541238750214688,None,,,,,,,,,,,,330,001,,,2026-05-27_11h28.53.494,encodingtask,,2025.2.4,None,2026-05-27 11h28.54.742385 -0400,
1,9,9,0,stimuli/scenes/UA_1.jpg,Undersea,Tulon,stimuli/items/undersea_animal_2.png,Undersea,animal,sc,stimuli/integrated/ocean_a_undersea_animal_2.jpg,stimuli/recalled/recalled_ocean_a_undersea_animal_2.jpg,q,1,0.5161908749723807,None,,,,0,0,0,0,0,9,9,9,,,,,58.03907200001413,,,,,,,,,,,,,,,,,,,,,,,,58.02895183401415,58.03907200001413,58.85432383400621,58.85440729203401,58.86497537500691,58.86497537500691,,,59.38348733400926,q,1,59.383635625010356,59.389600249996874,61.54043366701808,60.381989041983616,0.5161908749723807,None,,,,,,,,,,,,330,001,,,2026-05-27_11h28.53.494,encodingtask,,2025.2.4,None,2026-05-27 11h28.54.742385 -0400,
1,10,10,0,stimuli/scenes/UB_1.jpg,Undersea,Somar,stimuli/items/jungle_object_9.png,Jungle,object,si,stimuli/integrated/ocean_b_jungle_object_9.jpg,stimuli/recalled/recalled_ocean_b_jungle_object_9.jpg,p,1,0.6504078339785337,None,,,,0,0,0,0,0,10,10,10,,,,,61.54043366701808,,,,,,,,,,,,,,,,,,,,,,,,61.529803375015035,61.54043366701808,62.38813004200347,62.38820250000572,62.3985816250206,62.3985816250206,,,63.05464425001992,p,1,63.05477058398537,63.08209729200462,,64.06507058400894,0.6504078339785337,None,,,,,,,,,,,,330,001,,,2026-05-27_11h28.53.494,encodingtask,,2025.2.4,None,2026-05-27 11h28.54.742385 -0400,
1,11,11,0,stimuli/scenes/JB_1.jpg,Jungle,Negvi,stimuli/items/jungle_object_7.png,Jungle,object,sc,stimuli/integrated/jungle_b_jungle_object_7.jpg,stimuli/recalled/recalled_jungle_b_jungle_object_7.jpg,p,0,0.694982125016395,None,,,,0,0,0,0,0,11,11,11,,,,,65.52704341697972,,,,,,,,,,,,,,,,,,,,,,,,65.51472500001546,65.52704341697972,66.06504491699161,66.06511479202891,66.06990533403587,66.06990533403587,,,66.76698283402948,p,0,66.76718299998902,66.77863433398306,68.89684649999253,67.76524120901013,0.694982125016395,None,,,,,,,,,,,,330,001,,,2026-05-27_11h28.53.494,encodingtask,,2025.2.4,None,2026-05-27 11h28.54.742385 -0400,
1,12,12,0,stimuli/scenes/UB_1.jpg,Undersea,Somar,stimuli/items/undersea_animal_12.png,Undersea,animal,sc,stimuli/integrated/ocean_b_undersea_animal_12.jpg,stimuli/recalled/recalled_ocean_b_undersea_animal_12.jpg,q,1,0.3561499170027673,None,,,,0,0,0,0,0,12,12,12,,,,,68.89684649999253,,,,,,,,,,,,,,,,,,,,,,,,68.88660520903068,68.89684649999253,69.77103708399227,69.77112116699573,69.78165708400775,69.78165708400775,,,70.15030441700947,q,1,70.1504762499826,70.16212116699899,72.77952508401359,71.1485397919896,0.3561499170027673,None,,,,,,,,,,,,330,001,,,2026-05-27_11h28.53.494,encodingtask,,2025.2.4,None,2026-05-27 11h28.54.742385 -0400,
1,13,13,0,stimuli/scenes/JA_1.jpg,Jungle,Malbow,stimuli/items/jungle_animal_16.png,Jungle,animal,sc,stimuli/integrated/jungle_a_jungle_animal_16.jpg,stimuli/recalled/recalled_jungle_a_jungle_animal_16.jpg,q,1,0.7309205000055954,None,,,,0,0,0,0,0,13,13,13,,,,,72.77952508401359,,,,,,,,,,,,,,,,,,,,,,,,72.76948883401928,72.77952508401359,73.15414316701936,73.15421700000297,73.16477025003405,73.16477025003405,,,73.90045150002697,q,1,73.90062741702422,73.91195433400571,76.03128566703526,74.89860287500778,0.7309205000055954,None,,,,,,,,,,,,330,001,,,2026-05-27_11h28.53.494,encodingtask,,2025.2.4,None,2026-05-27 11h28.54.742385 -0400,
1,14,14,0,stimuli/scenes/UA_1.jpg,Undersea,Tulon,stimuli/items/jungle_object_3.png,Jungle,object,si,stimuli/integrated/ocean_a_jungle_object_3.jpg,stimuli/recalled/recalled_ocean_a_jungle_object_3.jpg,p,1,0.9116549169993959,None,,,,0,0,0,0,0,14,14,14,,,,,76.03128566703526,,,,,,,,,,,,,,,,,,,,,,,,76.0259645000333,76.03128566703526,76.90340004203608,76.9034774589818,76.91498499998124,76.91498499998124,,,77.83382208400872,p,1,77.83405645901803,77.8452987089986,80.32560179202119,78.83191712503321,0.9116549169993959,None,,,,,,,,,,,,330,001,,,2026-05-27_11h28.53.494,encodingtask,,2025.2.4,None,2026-05-27 11h28.54.742385 -0400,
1,15,15,0,stimuli/scenes/JA_1.jpg,Jungle,Malbow,stimuli/items/undersea_animal_15.png,Undersea,animal,si,stimuli/integrated/jungle_a_undersea_animal_15.jpg,stimuli/recalled/recalled_jungle_a_undersea_animal_15.jpg,p,1,0.8175080830114894,None,,,,0,0,0,0,0,15,15,15,,,,,80.32560179202119,,,,,,,,,,,,,,,,,,,,,,,,80.30736845900537,80.32560179202119,80.83771925000474,80.83779625000898,80.84802725003101,80.84802725003101,,,81.67082641698653,p,1,81.67094283399638,81.69841133401496,,82.68154395901365,0.8175080830114894,None,,,,,,,,,,,,330,001,,,2026-05-27_11h28.53.494,encodingtask,,2025.2.4,None,2026-05-27 11h28.54.742385 -0400,
1,16,16,0,stimuli/scenes/JB_1.jpg,Jungle,Negvi,stimuli/items/undersea_animal_19.png,Undersea,animal,si,stimuli/integrated/jungle_b_undersea_animal_19.jpg,stimuli/recalled/recalled_jungle_b_undersea_animal_19.jpg,p,1,0.6905069159693085,None,,,,0,0,0,0,0,16,16,16,,,,,84.03275233402383,,,,,,,,,,,,,,,,,,,,,,,,84.02275391703006,84.03275233402383,84.6710722920252,84.67115104198456,84.68191250000382,84.68191250000382,,,85.3832327920245,p,1,85.38342249998823,85.39423908398021,87.76857925002696,86.38183579198085,0.6905069159693085,None,,,,,,,,,,,,330,001,,,2026-05-27_11h28.53.494,encodingtask,,2025.2.4,None,2026-05-27 11h28.54.742385 -0400,
1,17,17,0,stimuli/scenes/JA_1.jpg,Jungle,Malbow,stimuli/items/undersea_object_15.png,Undersea,object,si,stimuli/integrated/jungle_a_undersea_object_15.jpg,stimuli/recalled/recalled_jungle_a_undersea_object_15.jpg,p,1,0.5461314579588361,None,,,,0,0,0,0,0,17,17,17,,,,,87.76857925002696,,,,,,,,,,,,,,,,,,,,,,,,87.75680054200348,87.76857925002696,88.38697400002275,88.38705700001447,88.39831550000235,88.39831550000235,,,88.9507638340001,p,1,88.9509674590081,88.96301587502239,91.05137183400802,89.94858612498501,0.5461314579588361,None,,,,,,,,,,,,330,001,,,2026-05-27_11h28.53.494,encodingtask,,2025.2.4,None,2026-05-27 11h28.54.742385 -0400,
1,18,18,0,stimuli/scenes/UA_1.jpg,Undersea,Tulon,stimuli/items/undersea_object_16.png,Undersea,object,sc,stimuli/integrated/ocean_a_undersea_object_16.jpg,stimuli/recalled/recalled_ocean_a_undersea_object_16.jpg,q,1,0.30243204097496346,None,,,,0,0,0,0,0,18,18,18,,,,,91.05137183400802,,,,,,,,,,,,,,,,,,,,,,,,91.04620804201113,91.05137183400802,91.95317941700341,91.95325170899741,91.96485387498979,91.96485387498979,,,92.27332087501418,q,1,92.27344216703204,92.2852708339924,94.57652216701536,93.27181895897957,0.30243204097496346,None,,,,,,,,,,,,330,001,,,2026-05-27_11h28.53.494,encodingtask,,2025.2.4,None,2026-05-27 11h28.54.742385 -0400,
1,19,19,0,stimuli/scenes/JA_1.jpg,Jungle,Malbow,stimuli/items/undersea_object_9.png,Undersea,object,si,stimuli/integrated/jungle_a_undersea_object_9.jpg,stimuli/recalled/recalled_jungle_a_undersea_object_9.jpg,p,1,0.8683487080270424,None,,,,0,0,0,0,0,19,19,19,,,,,94.57652216701536,,,,,,,,,,,,,,,,,,,,,,,,94.56437054200796,94.57652216701536,95.28191779198823,95.2819999170024,95.28773333400022,95.28773333400022,,,96.16654800000833,p,1,96.16672358399956,96.1781260840362,98.53029995900579,97.16503266699146,0.8683487080270424,None,,,,,,,,,,,,330,001,,,2026-05-27_11h28.53.494,encodingtask,,2025.2.4,None,2026-05-27 11h28.54.742385 -0400,
1,20,20,0,stimuli/scenes/UA_1.jpg,Undersea,Tulon,stimuli/items/undersea_animal_16.png,Undersea,animal,sc,stimuli/integrated/ocean_a_undersea_animal_16.jpg,stimuli/recalled/recalled_ocean_a_undersea_animal_16.jpg,q,1,0.41048075002618134,None,,,,0,0,0,0,0,20,20,20,,,,,98.53029995900579,,,,,,,,,,,,,,,,,,,,,,,,98.52237991703441,98.53029995900579,99.17015025002183,99.17028183402726,99.18051262502559,99.18051262502559,,,99.59991533402354,q,1,99.60011404199759,99.61280083400197,101.91270899999654,100.5985159589909,0.41048075002618134,None,,,,,,,,,,,,330,001,,,2026-05-27_11h28.53.494,encodingtask,,2025.2.4,None,2026-05-27 11h28.54.742385 -0400,
1,21,21,0,stimuli/scenes/JA_1.jpg,Jungle,Malbow,stimuli/items/undersea_animal_14.png,Undersea,animal,si,stimuli/integrated/jungle_a_undersea_animal_14.jpg,stimuli/recalled/recalled_jungle_a_undersea_animal_14.jpg,p,1,0.5214385840226896,None,,,,0,0,0,0,0,21,21,21,,,,,101.91270899999654,,,,,,,,,,,,,,,,,,,,,,,,101.90048391697928,101.91270899999654,102.6033654169878,102.60345525003504,102.61458462500013,102.61458462500013,,,103.13844304200029,p,1,103.13856620900333,103.15184183401288,105.43659037502948,104.13736470899312,0.5214385840226896,None,,,,,,,,,,,,330,001,,,2026-05-27_11h28.53.494,encodingtask,,2025.2.4,None,2026-05-27 11h28.54.742385 -0400,
1,22,22,0,stimuli/scenes/UA_1.jpg,Undersea,Tulon,stimuli/items/undersea_animal_13.png,Undersea,animal,sc,stimuli/integrated/ocean_a_undersea_animal_13.jpg,stimuli/recalled/recalled_ocean_a_undersea_animal_13.jpg,q,1,0.43279458297183737,None,,,,0,0,0,0,0,22,22,22,,,,,105.43659037502948,,,,,,,,,,,,,,,,,,,,,,,,105.4195397500298,105.43659037502948,106.14821179199498,106.14827125001466,106.15305770898703,106.15305770898703,,,106.5880852920236,q,1,106.58820208400721,106.60152308398392,108.90405604202533,107.58766004198696,0.43279458297183737,None,,,,,,,,,,,,330,001,,,2026-05-27_11h28.53.494,encodingtask,,2025.2.4,None,2026-05-27 11h28.54.742385 -0400,
1,23,23,0,stimuli/scenes/JA_1.jpg,Jungle,Malbow,stimuli/items/jungle_object_12.png,Jungle,object,sc,stimuli/integrated/jungle_a_jungle_object_12.jpg,stimuli/recalled/recalled_jungle_a_jungle_object_12.jpg,q,1,0.8468927909852937,None,,,,0,0,0,0,0,23,23,23,,,,,108.90405604202533,,,,,,,,,,,,,,,,,,,,,,,,108.89378470898373,108.90405604202533,109.5982163749868,109.59829033399001,109.60381833399879,109.60381833399879,,,110.45564433402615,q,1,110.45576237502974,110.46857129200362,112.65704783401452,111.4543980419985,0.8468927909852937,None,,,,,,,,,,,,330,001,,,2026-05-27_11h28.53.494,encodingtask,,2025.2.4,None,2026-05-27 11h28.54.742385 -0400,
1,24,24,0,stimuli/scenes/UB_1.jpg,Undersea,Somar,stimuli/items/jungle_animal_18.png,Jungle,animal,si,stimuli/integrated/ocean_b_jungle_animal_18.jpg,stimuli/recalled/recalled_ocean_b_jungle_animal_18.jpg,p,1,0.345639375038445,None,,,,0,0,0,0,0,24,24,24,,,,,112.65704783401452,,,,,,,,,,,,,,,,,,,,,,,,112.64527866698336,112.65704783401452,113.46488208399387,113.46497741702478,113.47090408398071,113.47090408398071,,,113.82123108400265,p,1,113.82135566702345,113.83463529200526,116.22345295903506,114.8214645840344,0.345639375038445,None,,,,,,,,,,,,330,001,,,2026-05-27_11h28.53.494,encodingtask,,2025.2.4,None,2026-05-27 11h28.54.742385 -0400,
1,25,25,0,stimuli/scenes/JB_1.jpg,Jungle,Negvi,stimuli/items/undersea_animal_18.png,Undersea,animal,si,stimuli/integrated/jungle_b_undersea_animal_18.jpg,stimuli/recalled/recalled_jungle_b_undersea_animal_18.jpg,p,1,0.597723999992013,None,,,,0,0,0,0,0,25,25,25,,,,,116.22345295903506,,,,,,,,,,,,,,,,,,,,,,,,116.2113425420248,116.22345295903506,116.83119050000096,116.83126637502573,116.83690616698004,116.83690616698004,,,117.43737266701646,p,1,117.43748850002885,117.46484283398604,,118.43764212500537,0.597723999992013,None,,,,,,,,,,,,330,001,,,2026-05-27_11h28.53.494,encodingtask,,2025.2.4,None,2026-05-27 11h28.54.742385 -0400,
1,26,26,0,stimuli/scenes/UB_1.jpg,Undersea,Somar,stimuli/items/undersea_animal_5.png,Undersea,animal,sc,stimuli/integrated/ocean_b_undersea_animal_5.jpg,stimuli/recalled/recalled_ocean_b_undersea_animal_5.jpg,q,1,0.7483990829787217,None,,,,0,0,0,0,0,26,26,26,,,,,119.68006979202619,,,,,,,,,,,,,,,,,,,,,,,,119.66861429199344,119.68006979202619,120.43811008398188,120.43820791703183,120.44816149998223,120.44816149998223,,,121.19953041698318,q,1,121.19968754198635,121.21124441700522,123.66295112500666,122.19813274999615,0.7483990829787217,None,,,,,,,,,,,,330,001,,,2026-05-27_11h28.53.494,encodingtask,,2025.2.4,None,2026-05-27 11h28.54.742385 -0400,
1,27,27,0,stimuli/scenes/JB_1.jpg,Jungle,Negvi,stimuli/items/jungle_animal_11.png,Jungle,animal,sc,stimuli/integrated/jungle_b_jungle_animal_11.jpg,stimuli/recalled/recalled_jungle_b_jungle_animal_11.jpg,p,0,0.9397676669759676,None,,,,0,0,0,0,0,27,27,27,,,,,123.66295112500666,,,,,,,,,,,,,,,,,,,,,,,,123.6511115420144,123.66295112500666,124.20404583401978,124.20412758400198,124.21461895899847,124.21461895899847,,,125.16643816698343,p,0,125.16658712498611,125.17759583401494,127.4141735000303,126.1651761670364,0.9397676669759676,None,,,,,,,,,,,,330,001,,,2026-05-27_11h28.53.494,encodingtask,,2025.2.4,None,2026-05-27 11h28.54.742385 -0400,
1,28,28,0,stimuli/scenes/UB_1.jpg,Undersea,Somar,stimuli/items/jungle_object_1.png,Jungle,object,si,stimuli/integrated/ocean_b_jungle_object_1.jpg,stimuli/recalled/recalled_ocean_b_jungle_object_1.jpg,q,0,0.413960459001828,None,,,,0,0,0,0,0,28,28,28,,,,,127.4141735000303,,,,,,,,,,,,,,,,,,,,,,,,127.40791629202431,127.4141735000303,128.17095245898236,128.1710493339924,128.1813354170299,128.1813354170299,,,128.59957783401478,q,0,128.59973025001818,128.6054244590341,129.62460570898838,129.59797683398938,0.413960459001828,None,,,,,,,,,,,,330,001,,,2026-05-27_11h28.53.494,encodingtask,,2025.2.4,None,2026-05-27 11h28.54.742385 -0400,
1,29,29,0,stimuli/scenes/UA_1.jpg,Undersea,Tulon,stimuli/items/jungle_animal_7.png,Jungle,animal,si,stimuli/integrated/ocean_a_jungle_animal_7.jpg,stimuli/recalled/recalled_ocean_a_jungle_animal_7.jpg,p,1,0.43197062495164573,None,,,,0,0,0,0,0,29,29,29,,,,,129.62460570898838,,,,,,,,,,,,,,,,,,,,,,,,129.61921858403366,129.62460570898838,131.6031750839902,131.60326045902912,131.6143124999944,131.6143124999944,,,132.04931654199027,p,1,132.04944145900663,132.0548140000319,133.07449241698487,133.0479015840101,0.43197062495164573,None,,,,,,,,,,,,330,001,,,2026-05-27_11h28.53.494,encodingtask,,2025.2.4,None,2026-05-27 11h28.54.742385 -0400,
1,30,30,0,stimuli/scenes/UB_1.jpg,Undersea,Somar,stimuli/items/jungle_animal_19.png,Jungle,animal,si,stimuli/integrated/ocean_b_jungle_animal_19.jpg,stimuli/recalled/recalled_ocean_b_jungle_animal_19.jpg,p,1,0.3737502500298433,None,,,,0,0,0,0,0,30,30,30,,,,,133.07449241698487,,,,,,,,,,,,,,,,,,,,,,,,133.06896695902105,133.07449241698487,135.05554145900533,135.05574366700603,135.0634898749995,135.0634898749995,,,135.44791729201097,p,1,135.44807054201374,135.4542892089812,,136.44815854198532,0.3737502500298433,None,,,,,,,,,,,,330,001,,,2026-05-27_11h28.53.494,encodingtask,,2025.2.4,None,2026-05-27 11h28.54.742385 -0400,
1,31,31,0,stimuli/scenes/JA_1.jpg,Jungle,Malbow,stimuli/items/jungle_object_10.png,Jungle,object,sc,stimuli/integrated/jungle_a_jungle_object_10.jpg,stimuli/recalled/recalled_jungle_a_jungle_object_10.jpg,q,1,0.7832569999736734,None,,,,0,0,0,0,0,31,31,31,,,,,138.13970345898997,,,,,,,,,,,,,,,,,,,,,,,,138.1161521670292,138.13970345898997,138.4482167090173,138.44834654201986,138.45476208400214,138.45476208400214,,,139.2509443340241,q,1,139.2511605839827,139.264234375034,141.56200366700068,140.2481684589875,0.7832569999736734,None,,,,,,,,,,,,330,001,,,2026-05-27_11h28.53.494,encodingtask,,2025.2.4,None,2026-05-27 11h28.54.742385 -0400,
1,32,32,0,stimuli/scenes/UB_1.jpg,Undersea,Somar,stimuli/items/undersea_object_20.png,Undersea,object,sc,stimuli/integrated/ocean_b_undersea_object_20.jpg,stimuli/recalled/recalled_ocean_b_undersea_object_20.jpg,q,1,0.47657995799090713,None,,,,0,0,0,0,0,32,32,32,,,,,141.56200366700068,,,,,,,,,,,,,,,,,,,,,,,,141.55017520900583,141.56200366700068,142.25309625000227,142.2532066249987,142.26435879198834,142.26435879198834,,,142.74899354198715,q,1,142.74911758402595,142.7598618750344,144.89290091698058,143.74779970903182,0.47657995799090713,None,,,,,,,,,,,,330,001,,,2026-05-27_11h28.53.494,encodingtask,,2025.2.4,None,2026-05-27 11h28.54.742385 -0400,
1,33,33,0,stimuli/scenes/JB_1.jpg,Jungle,Negvi,stimuli/items/jungle_animal_6.png,Jungle,animal,sc,stimuli/integrated/jungle_b_jungle_animal_6.jpg,stimuli/recalled/recalled_jungle_b_jungle_animal_6.jpg,q,1,0.2883666669949889,None,,,,0,0,0,0,0,33,33,33,,,,,144.89290091698058,,,,,,,,,,,,,,,,,,,,,,,,144.88683937501628,144.89290091698058,145.7539567500353,145.7540395000251,145.76455200003693,145.76455200003693,,,146.0557764589903,q,1,146.05592820898164,146.0682047919836,148.23209320899332,147.05356320901774,0.2883666669949889,None,,,,,,,,,,,,330,001,,,2026-05-27_11h28.53.494,encodingtask,,2025.2.4,None,2026-05-27 11h28.54.742385 -0400,
1,34,34,0,stimuli/scenes/UB_1.jpg,Undersea,Somar,stimuli/items/jungle_object_2.png,Jungle,object,si,stimuli/integrated/ocean_b_jungle_object_2.jpg,stimuli/recalled/recalled_ocean_b_jungle_object_2.jpg,None,0,,,,,,0,0,0,0,0,34,34,34,,,,,148.23209320899332,,,,,,,,,,,,,,,,,,,,,,,,148.21971849998226,148.23209320899332,149.06449150003027,149.06457841699012,149.0711495000287,149.0711495000287,,,150.06634133402258,None,0,150.0669650839991,150.07326320902212,,151.0643425420276,,,,,,,,,,,,,,330,001,,,2026-05-27_11h28.53.494,encodingtask,,2025.2.4,None,2026-05-27 11h28.54.742385 -0400,
1,35,35,0,stimuli/scenes/JB_1.jpg,Jungle,Negvi,stimuli/items/jungle_animal_20.png,Jungle,animal,sc,stimuli/integrated/jungle_b_jungle_animal_20.jpg,stimuli/recalled/recalled_jungle_b_jungle_animal_20.jpg,q,1,0.6480025420314632,None,,,,0,0,0,0,0,35,35,35,,,,,152.28876587498235,,,,,,,,,,,,,,,,,,,,,,,,152.27778270898852,152.28876587498235,153.0647612499888,153.06482379202498,153.0694314169814,153.0694314169814,,,153.7205072090146,q,1,153.720623042027,153.74796133401105,,154.73133579199202,0.6480025420314632,None,,,,,,,,,,,,330,001,,,2026-05-27_11h28.53.494,encodingtask,,2025.2.4,None,2026-05-27 11h28.54.742385 -0400,
1,36,36,0,stimuli/scenes/UA_1.jpg,Undersea,Tulon,stimuli/items/undersea_animal_9.png,Undersea,animal,sc,stimuli/integrated/ocean_a_undersea_animal_9.jpg,stimuli/recalled/recalled_ocean_a_undersea_animal_9.jpg,q,1,0.3294144999817945,None,,,,0,0,0,0,0,36,36,36,,,,,155.82436758402037,,,,,,,,,,,,,,,,,,,,,,,,155.81797174998792,155.82436758402037,156.7310895419796,156.73118137498386,156.73733570898185,156.73733570898185,,,157.0707456250093,q,1,157.07086741703097,157.08444395900005,159.24760875001084,158.06998679199023,0.3294144999817945,None,,,,,,,,,,,,330,001,,,2026-05-27_11h28.53.494,encodingtask,,2025.2.4,None,2026-05-27 11h28.54.742385 -0400,
1,37,37,0,stimuli/scenes/UB_1.jpg,Undersea,Somar,stimuli/items/undersea_object_19.png,Undersea,object,sc,stimuli/integrated/ocean_b_undersea_object_19.jpg,stimuli/recalled/recalled_ocean_b_undersea_object_19.jpg,q,1,0.23812120803631842,None,,,,0,0,0,0,0,37,37,37,,,,,159.24760875001084,,,,,,,,,,,,,,,,,,,,,,,,159.23884916701354,159.24760875001084,160.0809262500261,160.08099845901597,160.0864620420034,160.0864620420034,,,160.33332395902835,q,1,160.33345000003465,160.3448878750205,162.43431566702202,161.33117179200053,0.23812120803631842,None,,,,,,,,,,,,330,001,,,2026-05-27_11h28.53.494,encodingtask,,2025.2.4,None,2026-05-27 11h28.54.742385 -0400,
1,38,38,0,stimuli/scenes/JB_1.jpg,Jungle,Negvi,stimuli/items/jungle_object_5.png,Jungle,object,sc,stimuli/integrated/jungle_b_jungle_object_5.jpg,stimuli/recalled/recalled_jungle_b_jungle_object_5.jpg,q,1,0.7520842090016231,None,,,,0,0,0,0,0,38,38,38,,,,,162.43431566702202,,,,,,,,,,,,,,,,,,,,,,,,162.42854641698068,162.43431566702202,163.33675766701344,163.33683691703482,163.34736250003334,163.34736250003334,,,164.10433233401272,q,1,164.10445533401798,164.1171894170111,166.4181397500215,165.10302258399315,0.7520842090016231,None,,,,,,,,,,,,330,001,,,2026-05-27_11h28.53.494,encodingtask,,2025.2.4,None,2026-05-27 11h28.54.742385 -0400,
1,39,39,0,stimuli/scenes/JA_1.jpg,Jungle,Malbow,stimuli/items/jungle_animal_14.png,Jungle,animal,sc,stimuli/integrated/jungle_a_jungle_animal_14.jpg,stimuli/recalled/recalled_jungle_a_jungle_animal_14.jpg,q,1,0.3361727079609409,None,,,,0,0,0,0,0,39,39,39,,,,,166.4181397500215,,,,,,,,,,,,,,,,,,,,,,,,166.4064414590248,166.4181397500215,167.11463862500386,167.1147337500006,167.12009308399865,167.12009308399865,,,167.46623979200376,q,1,167.46640154201305,167.47871300001862,168.49000983400038,168.46468037500745,0.3361727079609409,None,,,,,,,,,,,,330,001,,,2026-05-27_11h28.53.494,encodingtask,,2025.2.4,None,2026-05-27 11h28.54.742385 -0400,
1,40,40,0,stimuli/scenes/JB_1.jpg,Jungle,Negvi,stimuli/items/jungle_animal_8.png,Jungle,animal,sc,stimuli/integrated/jungle_b_jungle_animal_8.jpg,stimuli/recalled/recalled_jungle_b_jungle_animal_8.jpg,q,1,0.3037385829957202,None,,,,0,0,0,0,0,40,40,40,,,,,168.49000983400038,,,,,,,,,,,,,,,,,,,,,,,,168.483868292009,168.49000983400038,170.4700609589927,170.47013441700255,170.48066454200307,170.48066454200307,,,170.78687399998307,q,1,170.78698641702067,170.79728695901576,173.22960333398078,171.78094220900675,0.3037385829957202,None,,,,,,,,,,,,330,001,,,2026-05-27_11h28.53.494,encodingtask,,2025.2.4,None,2026-05-27 11h28.54.742385 -0400,
1,41,41,0,stimuli/scenes/UB_1.jpg,Undersea,Somar,stimuli/items/undersea_object_14.png,Undersea,object,sc,stimuli/integrated/ocean_b_undersea_object_14.jpg,stimuli/recalled/recalled_ocean_b_undersea_object_14.jpg,q,1,0.49146637495141476,None,,,,0,0,0,0,0,41,41,41,,,,,173.22960333398078,,,,,,,,,,,,,,,,,,,,,,,,173.21774762502173,173.22960333398078,173.79780566698173,173.7978999170009,173.80382783402456,173.80382783402456,,,174.29906191700138,q,1,174.29921158403158,174.30482625000877,176.76860029197996,175.29771837498993,0.49146637495141476,None,,,,,,,,,,,,330,001,,,2026-05-27_11h28.53.494,encodingtask,,2025.2.4,None,2026-05-27 11h28.54.742385 -0400,
1,42,42,0,stimuli/scenes/JB_1.jpg,Jungle,Negvi,stimuli/items/undersea_object_6.png,Undersea,object,si,stimuli/integrated/jungle_b_undersea_object_6.jpg,stimuli/recalled/recalled_jungle_b_undersea_object_6.jpg,q,0,0.5950787920155562,None,,,,0,0,0,0,0,42,42,42,,,,,176.76860029197996,,,,,,,,,,,,,,,,,,,,,,,,176.7564059169963,176.76860029197996,177.3033334169886,177.30341816699365,177.31417695898563,177.31417695898563,,,177.9158381249872,q,0,177.9159700840246,177.9277924170019,180.02785195899196,178.91457579203416,0.5950787920155562,None,,,,,,,,,,,,330,001,,,2026-05-27_11h28.53.494,encodingtask,,2025.2.4,None,2026-05-27 11h28.54.742385 -0400,
1,43,43,0,stimuli/scenes/JA_1.jpg,Jungle,Malbow,stimuli/items/jungle_animal_2.png,Jungle,animal,sc,stimuli/integrated/jungle_a_jungle_animal_2.jpg,stimuli/recalled/recalled_jungle_a_jungle_animal_2.jpg,q,1,0.23845591698773205,None,,,,0,0,0,0,0,43,43,43,,,,,180.02785195899196,,,,,,,,,,,,,,,,,,,,,,,,180.02235650003422,180.02785195899196,180.91966979199788,180.91975512501085,180.93064899998717,180.93064899998717,,,181.17116095899837,q,1,181.17128241702449,181.18411387503147,182.1953422499937,182.1710981670185,0.23845591698773205,None,,,,,,,,,,,,330,001,,,2026-05-27_11h28.53.494,encodingtask,,2025.2.4,None,2026-05-27 11h28.54.742385 -0400,
1,44,44,0,stimuli/scenes/JB_1.jpg,Jungle,Negvi,stimuli/items/jungle_animal_12.png,Jungle,animal,sc,stimuli/integrated/jungle_b_jungle_animal_12.jpg,stimuli/recalled/recalled_jungle_b_jungle_animal_12.jpg,q,1,0.2864208749961108,None,,,,0,0,0,0,0,44,44,44,,,,,182.1953422499937,,,,,,,,,,,,,,,,,,,,,,,,182.18982004199643,182.1953422499937,184.1806403750088,184.18069920898415,184.18566929199733,184.18566929199733,,,184.48212524998235,q,1,184.48229116701987,184.4928595420206,186.93003345897887,185.48105537501397,0.2864208749961108,None,,,,,,,,,,,,330,001,,,2026-05-27_11h28.53.494,encodingtask,,2025.2.4,None,2026-05-27 11h28.54.742385 -0400,
1,45,45,0,stimuli/scenes/UB_1.jpg,Undersea,Somar,stimuli/items/jungle_animal_5.png,Jungle,animal,si,stimuli/integrated/ocean_b_jungle_animal_5.jpg,stimuli/recalled/recalled_ocean_b_jungle_animal_5.jpg,p,1,0.8636942500015721,None,,,,0,0,0,0,0,45,45,45,,,,,186.93003345897887,,,,,,,,,,,,,,,,,,,,,,,,186.91854929202236,186.93003345897887,187.4865920000011,187.48667137499433,187.49722929199925,187.49722929199925,,,188.36538754199864,p,1,188.3655127090169,188.37645704200258,190.64523379202,189.36427479202393,0.8636942500015721,None,,,,,,,,,,,,330,001,,,2026-05-27_11h28.53.494,encodingtask,,2025.2.4,None,2026-05-27 11h28.54.742385 -0400,
1,46,46,0,stimuli/scenes/JB_1.jpg,Jungle,Negvi,stimuli/items/undersea_animal_17.png,Undersea,animal,si,stimuli/integrated/jungle_b_undersea_animal_17.jpg,stimuli/recalled/recalled_jungle_b_undersea_animal_17.jpg,p,1,0.5031317079556175,None,,,,0,0,0,0,0,46,46,46,,,,,190.64523379202,,,,,,,,,,,,,,,,,,,,,,,,190.6331017499906,190.64523379202,191.37034800002584,191.37043470900971,191.38066379202064,191.38066379202064,,,191.8878263339866,p,1,191.88794258399867,191.90053241699934,193.92507075000321,192.88567183399573,0.5031317079556175,None,,,,,,,,,,,,330,001,,,2026-05-27_11h28.53.494,encodingtask,,2025.2.4,None,2026-05-27 11h28.54.742385 -0400,
1,47,47,0,stimuli/scenes/UB_1.jpg,Undersea,Somar,stimuli/items/jungle_object_14.png,Jungle,object,si,stimuli/integrated/ocean_b_jungle_object_14.jpg,stimuli/recalled/recalled_ocean_b_jungle_object_14.jpg,p,1,0.867642541998066,None,,,,0,0,0,0,0,47,47,47,,,,,193.92507075000321,,,,,,,,,,,,,,,,,,,,,,,,193.9159587090253,193.92507075000321,194.89746195898624,194.89753679203568,194.90300674998434,194.90300674998434,,,195.7829592920025,p,1,195.78316379198804,195.79459570901236,197.87858195899753,196.78136650001397,0.867642541998066,None,,,,,,,,,,,,330,001,,,2026-05-27_11h28.53.494,encodingtask,,2025.2.4,None,2026-05-27 11h28.54.742385 -0400,
1,48,48,0,stimuli/scenes/JB_1.jpg,Jungle,Negvi,stimuli/items/jungle_object_20.png,Jungle,object,sc,stimuli/integrated/jungle_b_jungle_object_20.jpg,stimuli/recalled/recalled_jungle_b_jungle_object_20.jpg,q,1,0.567088249954395,None,,,,0,0,0,0,0,48,48,48,,,,,197.87858195899753,,,,,,,,,,,,,,,,,,,,,,,,197.87277808401268,197.87858195899753,198.78634179203073,198.78643029200612,198.79760624998016,198.79760624998016,,,199.37151075003203,q,1,199.3716352499905,199.38415937498212,201.55637808400206,200.36993566702586,0.567088249954395,None,,,,,,,,,,,,330,001,,,2026-05-27_11h28.53.494,encodingtask,,2025.2.4,None,2026-05-27 11h28.54.742385 -0400,
1,49,49,0,stimuli/scenes/UA_1.jpg,Undersea,Tulon,stimuli/items/undersea_object_8.png,Undersea,object,sc,stimuli/integrated/ocean_a_undersea_object_8.jpg,stimuli/recalled/recalled_ocean_a_undersea_object_8.jpg,q,1,0.677452165982686,None,,,,0,0,0,0,0,49,49,49,,,,,201.55637808400206,,,,,,,,,,,,,,,,,,,,,,,,201.54502433398739,201.55637808400206,202.38091025000904,202.38100212498102,202.3869842920103,202.3869842920103,,,203.0704580420279,q,1,203.07057570898905,203.08373474999098,205.22838662500726,204.0702979590278,0.677452165982686,None,,,,,,,,,,,,330,001,,,2026-05-27_11h28.53.494,encodingtask,,2025.2.4,None,2026-05-27 11h28.54.742385 -0400,
1,50,50,0,stimuli/scenes/JB_1.jpg,Jungle,Negvi,stimuli/items/undersea_object_2.png,Undersea,object,si,stimuli/integrated/jungle_b_undersea_object_2.jpg,stimuli/recalled/recalled_jungle_b_undersea_object_2.jpg,p,1,0.632803958025761,None,,,,0,0,0,0,0,50,50,50,,,,,205.22838662500726,,,,,,,,,,,,,,,,,,,,,,,,205.22202045901213,205.22838662500726,206.0808154590195,206.080860749993,206.08562029199675,206.08562029199675,,,206.72044708399335,p,1,206.72056829201756,206.73399187502218,208.9002950420254,207.7196667920216,0.632803958025761,None,,,,,,,,,,,,330,001,,,2026-05-27_11h28.53.494,encodingtask,,2025.2.4,None,2026-05-27 11h28.54.742385 -0400,
1,51,51,0,stimuli/scenes/UA_1.jpg,Undersea,Tulon,stimuli/items/jungle_animal_13.png,Jungle,animal,si,stimuli/integrated/ocean_a_jungle_animal_13.jpg,stimuli/recalled/recalled_ocean_a_jungle_animal_13.jpg,p,1,0.6886080830008723,None,,,,0,0,0,0,0,51,51,51,,,,,208.9002950420254,,,,,,,,,,,,,,,,,,,,,,,,208.88683420902817,208.9002950420254,209.73056708398508,209.73065645899624,209.7357404170325,209.7357404170325,,,210.43257258401718,p,1,210.43276225001318,210.44422741699964,212.56130812503397,211.43086075002793,0.6886080830008723,None,,,,,,,,,,,,330,001,,,2026-05-27_11h28.53.494,encodingtask,,2025.2.4,None,2026-05-27 11h28.54.742385 -0400,
1,52,52,0,stimuli/scenes/JB_1.jpg,Jungle,Negvi,stimuli/items/jungle_object_17.png,Jungle,object,sc,stimuli/integrated/jungle_b_jungle_object_17.jpg,stimuli/recalled/recalled_jungle_b_jungle_object_17.jpg,q,1,0.39506958302808926,None,,,,0,0,0,0,0,52,52,52,,,,,212.56130812503397,,,,,,,,,,,,,,,,,,,,,,,,212.55175591702573,212.56130812503397,213.43643412500387,213.43651675002184,213.44718633400043,213.44718633400043,,,213.84884541702922,q,1,213.84900866699172,213.86086454201723,216.02393595903413,214.84770625003148,0.39506958302808926,None,,,,,,,,,,,,330,001,,,2026-05-27_11h28.53.494,encodingtask,,2025.2.4,None,2026-05-27 11h28.54.742385 -0400,
1,53,53,0,stimuli/scenes/UA_1.jpg,Undersea,Tulon,stimuli/items/jungle_object_11.png,Jungle,object,si,stimuli/integrated/ocean_a_jungle_object_11.jpg,stimuli/recalled/recalled_ocean_a_jungle_object_11.jpg,p,1,0.5886064159567468,None,,,,0,0,0,0,0,53,53,53,,,,,216.02393595903413,,,,,,,,,,,,,,,,,,,,,,,,216.01755162503105,216.02393595903413,216.85203449998517,216.85212191700703,216.86361220898107,216.86361220898107,,,217.45362749998458,p,1,217.45373908401234,217.48056004202226,,218.46441800001776,0.5886064159567468,None,,,,,,,,,,,,330,001,,,2026-05-27_11h28.53.494,encodingtask,,2025.2.4,None,2026-05-27 11h28.54.742385 -0400,
1,54,54,0,stimuli/scenes/JB_1.jpg,Jungle,Negvi,stimuli/items/undersea_object_18.png,Undersea,object,si,stimuli/integrated/jungle_b_undersea_object_18.jpg,stimuli/recalled/recalled_jungle_b_undersea_object_18.jpg,None,0,,,,,,0,0,0,0,0,54,54,54,,,,,219.5613664590055,,,,,,,,,,,,,,,,,,,,,,,,219.55524983402574,219.5613664590055,220.463983750029,220.46407870901749,220.47016174998134,220.47016174998134,221.46406358398963,221.46406358398963,221.4531774999923,None,0,221.45330258400645,221.46406358398963,223.63552845898084,222.44757758401101,,,,,,,,,,,,,,330,001,,,2026-05-27_11h28.53.494,encodingtask,,2025.2.4,None,2026-05-27 11h28.54.742385 -0400,
1,55,55,0,stimuli/scenes/JA_1.jpg,Jungle,Malbow,stimuli/items/undersea_animal_4.png,Undersea,animal,si,stimuli/integrated/jungle_a_undersea_animal_4.jpg,stimuli/recalled/recalled_jungle_a_undersea_animal_4.jpg,p,1,0.9604122499586083,None,,,,0,0,0,0,0,55,55,55,,,,,223.63552845898084,,,,,,,,,,,,,,,,,,,,,,,,223.62499233399285,223.63552845898084,224.46417920902604,224.4642533750157,224.46945512498496,224.46945512498496,,,225.43256404198473,p,1,225.43270941701485,225.4453141670092,227.65428841701942,226.4306045420235,0.9604122499586083,None,,,,,,,,,,,,330,001,,,2026-05-27_11h28.53.494,encodingtask,,2025.2.4,None,2026-05-27 11h28.54.742385 -0400,
1,56,56,0,stimuli/scenes/JB_1.jpg,Jungle,Negvi,stimuli/items/undersea_animal_1.png,Undersea,animal,si,stimuli/integrated/jungle_b_undersea_animal_1.jpg,stimuli/recalled/recalled_jungle_b_undersea_animal_1.jpg,p,1,0.5910263750120066,None,,,,0,0,0,0,0,56,56,56,,,,,227.65428841701942,,,,,,,,,,,,,,,,,,,,,,,,227.64289720903616,227.65428841701942,228.43634887499502,228.4364349170355,228.4468866669922,228.4468866669922,,,229.0491328749922,p,1,229.0493432090152,229.06122045899974,231.2618810000131,230.04771504201926,0.5910263750120066,None,,,,,,,,,,,,330,001,,,2026-05-27_11h28.53.494,encodingtask,,2025.2.4,None,2026-05-27 11h28.54.742385 -0400,
1,57,57,0,stimuli/scenes/UA_1.jpg,Undersea,Tulon,stimuli/items/jungle_animal_15.png,Jungle,animal,si,stimuli/integrated/ocean_a_jungle_animal_15.jpg,stimuli/recalled/recalled_ocean_a_jungle_animal_15.jpg,p,1,0.5439563749823719,None,,,,0,0,0,0,0,57,57,57,,,,,231.2618810000131,,,,,,,,,,,,,,,,,,,,,,,,231.24337124999147,231.2618810000131,232.0533904589829,232.05346520902822,232.06374733400298,232.06374733400298,,,232.6160684589995,p,1,232.61627954198048,232.62862104200758,234.86227062501712,233.61409154202556,0.5439563749823719,None,,,,,,,,,,,,330,001,,,2026-05-27_11h28.53.494,encodingtask,,2025.2.4,None,2026-05-27 11h28.54.742385 -0400,
1,58,58,0,stimuli/scenes/JB_1.jpg,Jungle,Negvi,stimuli/items/jungle_object_8.png,Jungle,object,sc,stimuli/integrated/jungle_b_jungle_object_8.jpg,stimuli/recalled/recalled_jungle_b_jungle_object_8.jpg,q,1,0.8521876250160858,None,,,,0,0,0,0,0,58,58,58,,,,,234.86227062501712,,,,,,,,,,,,,,,,,,,,,,,,234.850242000015,234.86227062501712,235.61872770899208,235.61881454201648,235.63047562498832,235.63047562498832,,,236.48780591698596,q,1,236.48793041700264,236.5006631250144,238.61026120901806,237.4852044589934,0.8521876250160858,None,,,,,,,,,,,,330,001,,,2026-05-27_11h28.53.494,encodingtask,,2025.2.4,None,2026-05-27 11h28.54.742385 -0400,
1,59,59,0,stimuli/scenes/UB_1.jpg,Undersea,Somar,stimuli/items/jungle_object_18.png,Jungle,object,si,stimuli/integrated/ocean_b_jungle_object_18.jpg,stimuli/recalled/recalled_ocean_b_jungle_object_18.jpg,None,0,,,,,,0,0,0,0,0,59,59,59,,,,,238.61026120901806,,,,,,,,,,,,,,,,,,,,,,,,238.60485750000225,238.61026120901806,239.49741808400722,239.49750912497984,239.5037391249789,239.5037391249789,,,240.4973411670071,None,0,240.49750766699435,240.50292154203635,242.65049258398358,241.48614004201954,,,,,,,,,,,,,,330,001,,,2026-05-27_11h28.53.494,encodingtask,,2025.2.4,None,2026-05-27 11h28.54.742385 -0400,
1,60,60,0,stimuli/scenes/JA_1.jpg,Jungle,Malbow,stimuli/items/jungle_object_4.png,Jungle,object,sc,stimuli/integrated/jungle_a_jungle_object_4.jpg,stimuli/recalled/recalled_jungle_a_jungle_object_4.jpg,None,0,,,,,,0,0,0,0,0,60,60,60,,,,,242.65049258398358,,,,,,,,,,,,,,,,,,,,,,,,242.6448860000237,242.65049258398358,243.4974432500312,243.4975034170202,243.5023141669808,243.5023141669808,244.49687187501695,244.49687187501695,244.48688616702566,None,0,244.48703066702,244.49687187501695,246.6399420420057,245.48073270899476,,,,,,,,,,,,,,330,001,,,2026-05-27_11h28.53.494,encodingtask,,2025.2.4,None,2026-05-27 11h28.54.742385 -0400,
1,61,61,0,stimuli/scenes/UB_1.jpg,Undersea,Somar,stimuli/items/jungle_animal_10.png,Jungle,animal,si,stimuli/integrated/ocean_b_jungle_animal_10.jpg,stimuli/recalled/recalled_ocean_b_jungle_animal_10.jpg,None,0,,,,,,0,0,0,0,0,61,61,61,,,,,246.6399420420057,,,,,,,,,,,,,,,,,,,,,,,,246.63369483401766,246.6399420420057,247.49711995903635,247.49721075000707,247.50311812502332,247.50311812502332,,,248.49701475002803,None,0,248.49713791703107,248.502958416997,250.6197137919953,249.4863415840082,,,,,,,,,,,,,,330,001,,,2026-05-27_11h28.53.494,encodingtask,,2025.2.4,None,2026-05-27 11h28.54.742385 -0400,
1,62,62,0,stimuli/scenes/JA_1.jpg,Jungle,Malbow,stimuli/items/undersea_object_10.png,Undersea,object,si,stimuli/integrated/jungle_a_undersea_object_10.jpg,stimuli/recalled/recalled_jungle_a_undersea_object_10.jpg,None,0,,,,,,0,0,0,0,0,62,62,62,,,,,250.6197137919953,,,,,,,,,,,,,,,,,,,,,,,,250.61397950001992,250.6197137919953,251.4970857090084,251.4971757089952,251.5025681250263,251.5025681250263,252.4968030420132,252.4968030420132,252.48734370898455,None,0,252.487440625031,252.4968030420132,254.6607530839974,253.4804462090251,,,,,,,,,,,,,,330,001,,,2026-05-27_11h28.53.494,encodingtask,,2025.2.4,None,2026-05-27 11h28.54.742385 -0400,
1,63,63,0,stimuli/scenes/UA_1.jpg,Undersea,Tulon,stimuli/items/undersea_animal_7.png,Undersea,animal,sc,stimuli/integrated/ocean_a_undersea_animal_7.jpg,stimuli/recalled/recalled_ocean_a_undersea_animal_7.jpg,None,0,,,,,,0,0,0,0,0,63,63,63,,,,,254.6607530839974,,,,,,,,,,,,,,,,,,,,,,,,254.64897749997908,254.6607530839974,255.4970932090073,255.4971793339937,255.50266995897982,255.50266995897982,256.49675554200076,256.49675554200076,256.4860576670035,None,0,256.48615050001536,256.49675554200076,258.70963574998314,257.48044154199306,,,,,,,,,,,,,,330,001,,,2026-05-27_11h28.53.494,encodingtask,,2025.2.4,None,2026-05-27 11h28.54.742385 -0400,
1,64,64,0,stimuli/scenes/JA_1.jpg,Jungle,Malbow,stimuli/items/undersea_object_13.png,Undersea,object,si,stimuli/integrated/jungle_a_undersea_object_13.jpg,stimuli/recalled/recalled_jungle_a_undersea_object_13.jpg,None,0,,,,,,0,0,0,0,0,64,64,64,,,,,258.70963574998314,,,,,,,,,,,,,,,,,,,,,,,,258.6934810419916,258.70963574998314,259.497709917021,259.49778404203244,259.51487366697984,259.51487366697984,,,260.4974984169821,None,0,260.49772587500047,260.5031059589819,,261.4966838340042,,,,,,,,,,,,,,330,001,,,2026-05-27_11h28.53.494,encodingtask,,2025.2.4,None,2026-05-27 11h28.54.742385 -0400,
1,65,65,0,stimuli/scenes/UA_1.jpg,Undersea,Tulon,stimuli/items/jungle_animal_3.png,Jungle,animal,si,stimuli/integrated/ocean_a_jungle_animal_3.jpg,stimuli/recalled/recalled_ocean_a_jungle_animal_3.jpg,None,0,,,,,,0,0,0,0,0,65,65,65,,,,,262.66450179199455,,,,,,,,,,,,,,,,,,,,,,,,262.6509315840085,262.66450179199455,263.49714758398477,263.4972748340224,263.503929959028,263.503929959028,,,264.49702612502733,None,0,264.4971399999922,264.50197908398695,266.65106187498895,265.48584774998017,,,,,,,,,,,,,,330,001,,,2026-05-27_11h28.53.494,encodingtask,,2025.2.4,None,2026-05-27 11h28.54.742385 -0400,
1,66,66,0,stimuli/scenes/UB_1.jpg,Undersea,Somar,stimuli/items/undersea_animal_20.png,Undersea,animal,sc,stimuli/integrated/ocean_b_undersea_animal_20.jpg,stimuli/recalled/recalled_ocean_b_undersea_animal_20.jpg,None,0,,,,,,0,0,0,0,0,66,66,66,,,,,266.65106187498895,,,,,,,,,,,,,,,,,,,,,,,,266.63934041699395,266.65106187498895,267.4968175840331,267.4968859590008,267.5025692920317,267.5025692920317,,,268.49676862498745,None,0,268.49689145898446,268.5020875420305,270.7382490839809,269.4859296249924,,,,,,,,,,,,,,330,001,,,2026-05-27_11h28.53.494,encodingtask,,2025.2.4,None,2026-05-27 11h28.54.742385 -0400,
1,67,67,0,stimuli/scenes/JA_1.jpg,Jungle,Malbow,stimuli/items/jungle_animal_4.png,Jungle,animal,sc,stimuli/integrated/jungle_a_jungle_animal_4.jpg,stimuli/recalled/recalled_jungle_a_jungle_animal_4.jpg,None,0,,,,,,0,0,0,0,0,67,67,67,,,,,270.7382490839809,,,,,,,,,,,,,,,,,,,,,,,,270.72725091699976,270.7382490839809,271.49695291701937,271.4970446670195,271.5032530419994,271.5032530419994,272.4966695419862,272.4966695419862,272.4866038750042,None,0,272.4866959170322,272.4966695419862,274.5746748750098,273.4801436670241,,,,,,,,,,,,,,330,001,,,2026-05-27_11h28.53.494,encodingtask,,2025.2.4,None,2026-05-27 11h28.54.742385 -0400,
1,68,68,0,stimuli/scenes/UB_1.jpg,Undersea,Somar,stimuli/items/undersea_animal_6.png,Undersea,animal,sc,stimuli/integrated/ocean_b_undersea_animal_6.jpg,stimuli/recalled/recalled_ocean_b_undersea_animal_6.jpg,None,0,,,,,,0,0,0,0,0,68,68,68,,,,,274.5746748750098,,,,,,,,,,,,,,,,,,,,,,,,274.56842837500153,274.5746748750098,275.496926916996,275.49701699998695,275.50337358401157,275.50337358401157,,,276.4967952920124,None,0,276.4969532500254,276.50295275001554,,277.4968587500043,,,,,,,,,,,,,,330,001,,,2026-05-27_11h28.53.494,encodingtask,,2025.2.4,None,2026-05-27 11h28.54.742385 -0400,
1,69,69,0,stimuli/scenes/UA_1.jpg,Undersea,Tulon,stimuli/items/jungle_object_19.png,Jungle,object,si,stimuli/integrated/ocean_a_jungle_object_19.jpg,stimuli/recalled/recalled_ocean_a_jungle_object_19.jpg,None,0,,,,,,0,0,0,0,0,69,69,69,,,,,278.6164087090292,,,,,,,,,,,,,,,,,,,,,,,,278.6070015419973,278.6164087090292,279.49682829203084,279.49689695902634,279.50194262503646,279.50194262503646,280.49657333403593,280.49657333403593,280.4852240420296,None,0,280.48535766702844,280.49657333403593,282.68760233401554,281.48016412497964,,,,,,,,,,,,,,330,001,,,2026-05-27_11h28.53.494,encodingtask,,2025.2.4,None,2026-05-27 11h28.54.742385 -0400,
1,70,70,0,stimuli/scenes/UB_1.jpg,Undersea,Somar,stimuli/items/undersea_object_4.png,Undersea,object,sc,stimuli/integrated/ocean_b_undersea_object_4.jpg,stimuli/recalled/recalled_ocean_b_undersea_object_4.jpg,None,0,,,,,,0,0,0,0,0,70,70,70,,,,,282.68760233401554,,,,,,,,,,,,,,,,,,,,,,,,282.6760088339797,282.68760233401554,283.4971452089958,283.4972365000285,283.50300625001546,283.50300625001546,,,284.49663416697877,None,0,284.4967278750264,284.5019620420062,286.64385729201604,285.4864028340089,,,,,,,,,,,,,,330,001,,,2026-05-27_11h28.53.494,encodingtask,,2025.2.4,None,2026-05-27 11h28.54.742385 -0400,
1,71,71,0,stimuli/scenes/UA_1.jpg,Undersea,Tulon,stimuli/items/undersea_object_7.png,Undersea,object,sc,stimuli/integrated/ocean_a_undersea_object_7.jpg,stimuli/recalled/recalled_ocean_a_undersea_object_7.jpg,None,0,,,,,,0,0,0,0,0,71,71,71,,,,,286.64385729201604,,,,,,,,,,,,,,,,,,,,,,,,286.6380696250126,286.64385729201604,287.49664233397925,287.4967341250158,287.5029903340037,287.5029903340037,,,288.4966562920017,None,0,288.49676300003193,288.5013337500277,290.6871038749814,289.4850562500069,,,,,,,,,,,,,,330,001,,,2026-05-27_11h28.53.494,encodingtask,,2025.2.4,None,2026-05-27 11h28.54.742385 -0400,
1,72,72,0,stimuli/scenes/JA_1.jpg,Jungle,Malbow,stimuli/items/undersea_animal_8.png,Undersea,animal,si,stimuli/integrated/jungle_a_undersea_animal_8.jpg,stimuli/recalled/recalled_jungle_a_undersea_animal_8.jpg,None,0,,,,,,0,0,0,0,0,72,72,72,,,,,290.6871038749814,,,,,,,,,,,,,,,,,,,,,,,,290.6769742500037,290.6871038749814,291.4972306669806,291.49733816698426,291.50289979198715,291.50289979198715,,,292.4967464589863,None,0,292.4968707920052,292.50298154202756,294.67197208403377,293.48617008398287,,,,,,,,,,,,,,330,001,,,2026-05-27_11h28.53.494,encodingtask,,2025.2.4,None,2026-05-27 11h28.54.742385 -0400,
1,73,73,0,stimuli/scenes/JB_1.jpg,Jungle,Negvi,stimuli/items/undersea_animal_3.png,Undersea,animal,si,stimuli/integrated/jungle_b_undersea_animal_3.jpg,stimuli/recalled/recalled_jungle_b_undersea_animal_3.jpg,None,0,,,,,,0,0,0,0,0,73,73,73,,,,,294.67197208403377,,,,,,,,,,,,,,,,,,,,,,,,294.66616858402267,294.67197208403377,295.49679416703293,295.4969160420005,295.5027422499843,295.5027422499843,,,296.4964085420361,None,0,296.49661862500943,296.50219725002535,,297.4968262499897,,,,,,,,,,,,,,330,001,,,2026-05-27_11h28.53.494,encodingtask,,2025.2.4,None,2026-05-27 11h28.54.742385 -0400,
1,74,74,0,stimuli/scenes/JA_1.jpg,Jungle,Malbow,stimuli/items/jungle_object_16.png,Jungle,object,sc,stimuli/integrated/jungle_a_jungle_object_16.jpg,stimuli/recalled/recalled_jungle_a_jungle_object_16.jpg,None,0,,,,,,0,0,0,0,0,74,74,74,,,,,298.74333125003614,,,,,,,,,,,,,,,,,,,,,,,,298.73214408400236,298.74333125003614,299.496791750018,299.49685975001194,299.50258104200475,299.50258104200475,,,300.4965619170107,None,0,300.49668350000866,300.50220279203495,302.68301608401816,301.48618125001667,,,,,,,,,,,,,,330,001,,,2026-05-27_11h28.53.494,encodingtask,,2025.2.4,None,2026-05-27 11h28.54.742385 -0400,
1,75,75,0,stimuli/scenes/UB_1.jpg,Undersea,Somar,stimuli/items/jungle_animal_1.png,Jungle,animal,si,stimuli/integrated/ocean_b_jungle_animal_1.jpg,stimuli/recalled/recalled_ocean_b_jungle_animal_1.jpg,None,0,,,,,,0,0,0,0,0,75,75,75,,,,,302.68301608401816,,,,,,,,,,,,,,,,,,,,,,,,302.67669133399613,302.68301608401816,303.49663829198107,303.4967116669868,303.50216529198224,303.50216529198224,304.4965324170189,304.4965324170189,304.48569770902395,None,0,304.4858011670294,304.4965324170189,306.63466433400754,305.48026979202405,,,,,,,,,,,,,,330,001,,,2026-05-27_11h28.53.494,encodingtask,,2025.2.4,None,2026-05-27 11h28.54.742385 -0400,
1,76,76,0,stimuli/scenes/JA_1.jpg,Jungle,Malbow,stimuli/items/jungle_object_6.png,Jungle,object,sc,stimuli/integrated/jungle_a_jungle_object_6.jpg,stimuli/recalled/recalled_jungle_a_jungle_object_6.jpg,None,0,,,,,,0,0,0,0,0,76,76,76,,,,,306.63466433400754,,,,,,,,,,,,,,,,,,,,,,,,306.62687466701027,306.63466433400754,307.49658445903333,307.49667229200713,307.50325816700934,307.50325816700934,308.4962910839822,308.4962910839822,308.48604579200037,None,0,308.4861660419847,308.4962910839822,310.63005849998444,309.4801085839863,,,,,,,,,,,,,,330,001,,,2026-05-27_11h28.53.494,encodingtask,,2025.2.4,None,2026-05-27 11h28.54.742385 -0400,
1,77,77,0,stimuli/scenes/UA_1.jpg,Undersea,Tulon,stimuli/items/undersea_object_5.png,Undersea,object,sc,stimuli/integrated/ocean_a_undersea_object_5.jpg,stimuli/recalled/recalled_ocean_a_undersea_object_5.jpg,q,1,0.4028990420047194,None,,,,0,0,0,0,0,77,77,77,,,,,310.63005849998444,,,,,,,,,,,,,,,,,,,,,,,,310.61838325002464,310.63005849998444,311.49689075001515,311.4969498339924,311.5032389590051,311.5032389590051,,,311.9176391250221,q,1,311.9178406249848,311.9326506250072,,312.9180059999926,0.4028990420047194,None,,,,,,,,,,,,330,001,,,2026-05-27_11h28.53.494,encodingtask,,2025.2.4,None,2026-05-27 11h28.54.742385 -0400,
1,78,78,0,stimuli/scenes/JB_1.jpg,Jungle,Negvi,stimuli/items/undersea_object_12.png,Undersea,object,si,stimuli/integrated/jungle_b_undersea_object_12.jpg,stimuli/recalled/recalled_jungle_b_undersea_object_12.jpg,p,1,0.34095837501809,None,,,,0,0,0,0,0,78,78,78,,,,,314.05531054199673,,,,,,,,,,,,,,,,,,,,,,,,314.0443286669906,314.05531054199673,314.9191834999947,314.9192628340097,314.92962737497874,314.92962737497874,,,315.2816623750259,p,1,315.2818052090006,315.29323966702214,317.416805166984,316.27997924998635,0.34095837501809,None,,,,,,,,,,,,330,001,,,2026-05-27_11h28.53.494,encodingtask,,2025.2.4,None,2026-05-27 11h28.54.742385 -0400,
1,79,79,0,stimuli/scenes/JA_1.jpg,Jungle,Malbow,stimuli/items/jungle_animal_9.png,Jungle,animal,sc,stimuli/integrated/jungle_a_jungle_animal_9.jpg,stimuli/recalled/recalled_jungle_a_jungle_animal_9.jpg,q,1,0.3228337920154445,None,,,,0,0,0,0,0,79,79,79,,,,,317.416805166984,,,,,,,,,,,,,,,,,,,,,,,,317.41163716698065,317.416805166984,318.28611533402,318.2864400839899,318.29568445897894,318.29568445897894,,,318.63174191699363,q,1,318.63204058399424,318.64474708400667,319.6932110420312,319.6298755420139,0.3228337920154445,None,,,,,,,,,,,,330,001,,,2026-05-27_11h28.53.494,encodingtask,,2025.2.4,None,2026-05-27 11h28.54.742385 -0400,
1,0,0,0,,,,,,,,,,,,,,space,6.031549249950331,None,0,0,0,0,,,,,0,0,0,0,319.6932110420312,,,,,,,,,,,,,,,,,,,,,,,,,,,,,,,,,,,,,,,,,319.6539613340283,319.65403379203053,319.683975833992,319.6932110420312,319.6932110420312,319.6932110420312,325.73321641702205,space,6.031549249950331,None,,330,001,,,2026-05-27_11h28.53.494,encodingtask,,2025.2.4,None,2026-05-27 11h28.54.742385 -0400,
1,0,0,0,,,,,,,,,,,,,,,,,0,0,0,0,,,,,,,,,,,,,,,,,,,,,,,,,,,,,,,,,,,,,,,,,,,,,,,,,,,,,,,,,,,,,330,001,,,2026-05-27_11h28.53.494,encodingtask,,2025.2.4,None,2026-05-27 11h28.54.742385 -0400,
2,0,0,0,stimuli/scenes/UA_1.jpg,Undersea,Tulon,stimuli/items/jungle_animal_17.png,Jungle,animal,si,stimuli/integrated/ocean_a_jungle_animal_17.jpg,stimuli/recalled/recalled_ocean_a_jungle_animal_17.jpg,p,1,0.48001162498258054,None,,,,0,1,1,1,0,0,0,0,,,,,325.78080166701693,,,,,,,,,,,,,,,,,,,,,,325.7351764169871,325.7352415000205,325.77452170901233,325.78080166701693,327.74627262499416,327.7463621250354,327.7513156250352,327.7513156250352,,,328.2374570000102,p,1,328.2376575000235,328.2505204170011,329.2653760840185,329.23499637498753,0.48001162498258054,None,,,,,,,,,,,,330,001,,,2026-05-27_11h28.53.494,encodingtask,,2025.2.4,None,2026-05-27 11h28.54.742385 -0400,
2,1,1,0,stimuli/scenes/UB_1.jpg,Undersea,Somar,stimuli/items/undersea_animal_10.png,Undersea,animal,sc,stimuli/integrated/ocean_b_undersea_animal_10.jpg,stimuli/recalled/recalled_ocean_b_undersea_animal_10.jpg,q,1,0.4797758330241777,None,,,,0,1,1,1,0,1,1,1,,,,,329.2653760840185,,,,,,,,,,,,,,,,,,,,,,,,329.2586706249858,329.2653760840185,331.2463563749916,331.2464173340122,331.251323375036,331.251323375036,,,331.7354657499818,q,1,331.73555891698925,331.74611129198456,332.7542189999949,332.72980987501796,0.4797758330241777,None,,,,,,,,,,,,330,001,,,2026-05-27_11h28.53.494,encodingtask,,2025.2.4,None,2026-05-27 11h28.54.742385 -0400,
2,2,2,0,stimuli/scenes/UA_1.jpg,Undersea,Tulon,stimuli/items/jungle_object_15.png,Jungle,object,si,stimuli/integrated/ocean_a_jungle_object_15.jpg,stimuli/recalled/recalled_ocean_a_jungle_object_15.jpg,p,1,0.6804771670140326,None,,,,0,1,1,1,0,2,2,2,,,,,332.7542189999949,,,,,,,,,,,,,,,,,,,,,,,,332.74856429203646,332.7542189999949,334.7461706250324,334.74621958401985,334.75058175000595,334.75058175000595,,,335.4353846249869,p,1,335.4355119999964,335.44528091698885,336.45555845898343,336.4299864170025,0.6804771670140326,None,,,,,,,,,,,,330,001,,,2026-05-27_11h28.53.494,encodingtask,,2025.2.4,None,2026-05-27 11h28.54.742385 -0400,
2,3,3,0,stimuli/scenes/UB_1.jpg,Undersea,Somar,stimuli/items/undersea_object_1.png,Undersea,object,sc,stimuli/integrated/ocean_b_undersea_object_1.jpg,stimuli/recalled/recalled_ocean_b_undersea_object_1.jpg,q,1,0.329373000015039,None,,,,0,1,1,1,0,3,3,3,,,,,336.45555845898343,,,,,,,,,,,,,,,,,,,,,,,,336.4503125839983,336.45555845898343,338.44628575001843,338.446363791998,338.4516707090079,338.4516707090079,,,338.78613391699037,q,1,338.7862462500343,338.80054025002755,339.80589875002624,339.7841516670305,0.329373000015039,None,,,,,,,,,,,,330,001,,,2026-05-27_11h28.53.494,encodingtask,,2025.2.4,None,2026-05-27 11h28.54.742385 -0400,
2,4,4,0,stimuli/scenes/UA_1.jpg,Undersea,Tulon,stimuli/items/jungle_object_13.png,Jungle,object,si,stimuli/integrated/ocean_a_jungle_object_13.jpg,stimuli/recalled/recalled_ocean_a_jungle_object_13.jpg,p,1,0.27864220802439377,None,,,,0,1,1,1,0,4,4,4,,,,,339.80589875002624,,,,,,,,,,,,,,,,,,,,,,,,339.7999674589955,339.80589875002624,341.7960844170302,341.7961516249925,341.8012150840368,341.8012150840368,,,342.08615312498296,p,1,342.0862649999908,342.11296112503624,,343.0961649590172,0.27864220802439377,None,,,,,,,,,,,,330,001,,,2026-05-27_11h28.53.494,encodingtask,,2025.2.4,None,2026-05-27 11h28.54.742385 -0400,
2,5,5,0,stimuli/scenes/JB_1.jpg,Jungle,Negvi,stimuli/items/undersea_object_17.png,Undersea,object,si,stimuli/integrated/jungle_b_undersea_object_17.jpg,stimuli/recalled/recalled_jungle_b_undersea_object_17.jpg,p,1,0.34202729200478643,None,,,,0,1,1,1,0,5,5,5,,,,,343.1198308750172,,,,,,,,,,,,,,,,,,,,,,,,343.11446441698354,343.1198308750172,345.0962642090162,345.0963512089802,345.10209391702665,345.10209391702665,,,345.4480769590009,p,1,345.4482485000044,345.4548023749958,346.47489441698417,346.4460890000337,0.34202729200478643,None,,,,,,,,,,,,330,001,,,2026-05-27_11h28.53.494,encodingtask,,2025.2.4,None,2026-05-27 11h28.54.742385 -0400,
2,6,6,0,stimuli/scenes/JA_1.jpg,Jungle,Malbow,stimuli/items/undersea_object_3.png,Undersea,object,si,stimuli/integrated/jungle_a_undersea_object_3.jpg,stimuli/recalled/recalled_jungle_a_undersea_object_3.jpg,p,1,0.43817074998514727,None,,,,0,1,1,1,0,6,6,6,,,,,346.47489441698417,,,,,,,,,,,,,,,,,,,,,,,,346.46913662500447,346.47489441698417,348.4514252090012,348.4515256669838,348.4625995000242,348.4625995000242,,,348.9130312920315,p,1,348.91315858403686,348.92577966698445,349.9409495840082,349.9128931669984,0.43817074998514727,None,,,,,,,,,,,,330,001,,,2026-05-27_11h28.53.494,encodingtask,,2025.2.4,None,2026-05-27 11h28.54.742385 -0400,
2,7,7,0,stimuli/scenes/UA_1.jpg,Undersea,Tulon,stimuli/items/undersea_object_11.png,Undersea,object,sc,stimuli/integrated/ocean_a_undersea_object_11.jpg,stimuli/recalled/recalled_ocean_a_undersea_object_11.jpg,None,0,,,,,,0,1,1,1,0,7,7,7,,,,,349.9409495840082,,,,,,,,,,,,,,,,,,,,,,,,349.9348790840013,349.9409495840082,351.9188539169845,351.9189340000157,351.9295781669789,351.9295781669789,352.917721084028,352.917721084028,352.9132338340278,None,0,352.9133164170198,352.917721084028,353.92583020898746,353.90133970900206,,,,,,,,,,,,,,330,001,,,2026-05-27_11h28.53.494,encodingtask,,2025.2.4,None,2026-05-27 11h28.54.742385 -0400,
2,8,8,0,stimuli/scenes/JA_1.jpg,Jungle,Malbow,stimuli/items/undersea_animal_11.png,Undersea,animal,si,stimuli/integrated/jungle_a_undersea_animal_11.jpg,stimuli/recalled/recalled_jungle_a_undersea_animal_11.jpg,p,1,0.3071490839938633,None,,,,0,1,1,1,0,8,8,8,,,,,353.92583020898746,,,,,,,,,,,,,,,,,,,,,,,,353.9204476670129,353.92583020898746,355.91303808399243,355.9130955840228,355.91772729199147,355.91772729199147,,,356.23061683401465,p,1,356.23073120898334,356.2362696250202,357.25166087498656,357.2294281250215,0.3071490839938633,None,,,,,,,,,,,355.91772729199147,330,001,,,2026-05-27_11h28.53.494,encodingtask,,2025.2.4,None,2026-05-27 11h28.54.742385 -0400,
2,9,9,0,stimuli/scenes/UA_1.jpg,Undersea,Tulon,stimuli/items/undersea_animal_2.png,Undersea,animal,sc,stimuli/integrated/ocean_a_undersea_animal_2.jpg,stimuli/recalled/recalled_ocean_a_undersea_animal_2.jpg,None,0,,,,,,0,1,1,1,0,9,9,9,,,,,357.25166087498656,,,,,,,,,,,,,,,,,,,,,,,,357.24621254199883,357.25166087498656,359.2347268339945,359.2348029999994,359.2458661670098,359.2458661670098,360.23488125001313,360.23488125001313,360.22943033400225,None,0,360.2295362090226,360.23488125001313,361.24216191703454,361.2184227919788,,,,,,,,,,,,,,330,001,,,2026-05-27_11h28.53.494,encodingtask,,2025.2.4,None,2026-05-27 11h28.54.742385 -0400,
2,10,10,0,stimuli/scenes/UB_1.jpg,Undersea,Somar,stimuli/items/jungle_object_9.png,Jungle,object,si,stimuli/integrated/ocean_b_jungle_object_9.jpg,stimuli/recalled/recalled_ocean_b_jungle_object_9.jpg,p,1,0.27358291699783877,None,,,,0,1,1,1,0,10,10,10,,,,,361.24216191703454,,,,,,,,,,,,,,,,,,,,,,,,361.23627450002823,361.24216191703454,363.2294761670055,363.22953408403555,363.23485129198525,363.23485129198525,,,363.5136767090298,p,1,363.51378899998963,363.5186298750341,364.52642891701544,364.5021910840296,0.27358291699783877,None,,,,,,,,,,,363.23485129198525,330,001,,,2026-05-27_11h28.53.494,encodingtask,,2025.2.4,None,2026-05-27 11h28.54.742385 -0400,
2,11,11,0,stimuli/scenes/JB_1.jpg,Jungle,Negvi,stimuli/items/jungle_object_7.png,Jungle,object,sc,stimuli/integrated/jungle_b_jungle_object_7.jpg,stimuli/recalled/recalled_jungle_b_jungle_object_7.jpg,q,1,0.28996724996250123,None,,,,0,1,1,1,0,11,11,11,,,,,364.52642891701544,,,,,,,,,,,,,,,,,,,,,,,,364.52075675001834,364.52642891701544,366.51250308402814,366.51255145901814,366.5173871250008,366.5173871250008,,,366.81399804202374,q,1,366.8141546249972,366.8195355840144,367.8366885840078,367.8126329589868,0.28996724996250123,None,,,,,,,,,,,366.5173871250008,330,001,,,2026-05-27_11h28.53.494,encodingtask,,2025.2.4,None,2026-05-27 11h28.54.742385 -0400,
2,12,12,0,stimuli/scenes/UB_1.jpg,Undersea,Somar,stimuli/items/undersea_animal_12.png,Undersea,animal,sc,stimuli/integrated/ocean_b_undersea_animal_12.jpg,stimuli/recalled/recalled_ocean_b_undersea_animal_12.jpg,p,0,0.7329864160274155,None,,,,0,1,1,1,0,12,12,12,,,,,367.8366885840078,,,,,,,,,,,,,,,,,,,,,,,,367.8309675839846,367.8366885840078,369.8178625419969,369.8179367919802,369.8291651670006,369.8291651670006,,,370.56392404198414,p,0,370.56403141701594,370.5694023339893,371.59368745901156,371.5628665839904,0.7329864160274155,None,,,,,,,,,,,,330,001,,,2026-05-27_11h28.53.494,encodingtask,,2025.2.4,None,2026-05-27 11h28.54.742385 -0400,
2,13,13,0,stimuli/scenes/JA_1.jpg,Jungle,Malbow,stimuli/items/jungle_animal_16.png,Jungle,animal,sc,stimuli/integrated/jungle_a_jungle_animal_16.jpg,stimuli/recalled/recalled_jungle_a_jungle_animal_16.jpg,q,1,0.28393158299149945,None,,,,0,1,1,1,0,13,13,13,,,,,371.59368745901156,,,,,,,,,,,,,,,,,,,,,,,,371.5880215840298,371.59368745901156,373.56917475000955,373.56925183400745,373.5791813340038,373.5791813340038,,,373.86874624999473,q,1,373.8688650840195,373.8960964590078,,374.87919583398616,0.28393158299149945,None,,,,,,,,,,,,330,001,,,2026-05-27_11h28.53.494,encodingtask,,2025.2.4,None,2026-05-27 11h28.54.742385 -0400,
2,14,14,0,stimuli/scenes/UA_1.jpg,Undersea,Tulon,stimuli/items/jungle_object_3.png,Jungle,object,si,stimuli/integrated/ocean_a_jungle_object_3.jpg,stimuli/recalled/recalled_ocean_a_jungle_object_3.jpg,p,1,0.4345843329792842,None,,,,0,1,1,1,0,14,14,14,,,,,374.9071317089838,,,,,,,,,,,,,,,,,,,,,,,,374.9014634169871,374.9071317089838,376.8792082919972,376.8792684589862,376.88435845903587,376.88435845903587,,,377.3304868750274,p,1,377.33059883402893,377.3409956670366,378.3583229589858,378.3292954590288,0.4345843329792842,None,,,,,,,,,,,,330,001,,,2026-05-27_11h28.53.494,encodingtask,,2025.2.4,None,2026-05-27 11h28.54.742385 -0400,
2,15,15,0,stimuli/scenes/JA_1.jpg,Jungle,Malbow,stimuli/items/undersea_animal_15.png,Undersea,animal,si,stimuli/integrated/jungle_a_undersea_animal_15.jpg,stimuli/recalled/recalled_jungle_a_undersea_animal_15.jpg,p,1,0.4680327919777483,None,,,,0,1,1,1,0,15,15,15,,,,,378.3583229589858,,,,,,,,,,,,,,,,,,,,,,,,378.35282420902513,378.3583229589858,380.33453366701724,380.33462949999375,380.34583495900733,380.34583495900733,,,380.8186132920091,p,1,380.81872416700935,380.84602195903426,,381.8290807500016,0.4680327919777483,None,,,,,,,,,,,,330,001,,,2026-05-27_11h28.53.494,encodingtask,,2025.2.4,None,2026-05-27 11h28.54.742385 -0400,
2,16,16,0,stimuli/scenes/JB_1.jpg,Jungle,Negvi,stimuli/items/undersea_animal_19.png,Undersea,animal,si,stimuli/integrated/jungle_b_undersea_animal_19.jpg,stimuli/recalled/recalled_jungle_b_undersea_animal_19.jpg,p,1,0.6937801250023767,None,,,,0,1,1,1,0,16,16,16,,,,,381.8570840000175,,,,,,,,,,,,,,,,,,,,,,,,381.8512450000271,381.8570840000175,383.8290060000145,383.82906170899514,383.83409525000025,383.83409525000025,,,384.53096862498205,p,1,384.53115325002,384.5366480840021,385.5539969590027,385.5293628750369,0.6937801250023767,None,,,,,,,,,,,,330,001,,,2026-05-27_11h28.53.494,encodingtask,,2025.2.4,None,2026-05-27 11h28.54.742385 -0400,
2,17,17,0,stimuli/scenes/JA_1.jpg,Jungle,Malbow,stimuli/items/undersea_object_15.png,Undersea,object,si,stimuli/integrated/jungle_a_undersea_object_15.jpg,stimuli/recalled/recalled_jungle_a_undersea_object_15.jpg,p,1,0.5481535000144504,None,,,,0,1,1,1,0,17,17,17,,,,,385.5539969590027,,,,,,,,,,,,,,,,,,,,,,,,385.5484965000069,385.5539969590027,387.5346520000021,387.5347184999846,387.5455673750257,387.5455673750257,,,388.0972680840059,p,1,388.09742562501924,388.10254162503406,389.11901475000195,389.0960320000304,0.5481535000144504,None,,,,,,,,,,,,330,001,,,2026-05-27_11h28.53.494,encodingtask,,2025.2.4,None,2026-05-27 11h28.54.742385 -0400,
2,18,18,0,stimuli/scenes/UA_1.jpg,Undersea,Tulon,stimuli/items/undersea_object_16.png,Undersea,object,sc,stimuli/integrated/ocean_a_undersea_object_16.jpg,stimuli/recalled/recalled_ocean_a_undersea_object_16.jpg,q,1,0.36542991700116545,None,,,,0,1,1,1,0,18,18,18,,,,,389.11901475000195,,,,,,,,,,,,,,,,,,,,,,,,389.11314245901303,389.11901475000195,391.1018575420021,391.1019102919963,391.11226608400466,391.11226608400466,,,391.4804074590211,q,1,391.4805173340137,391.48554508399684,392.49555595900165,392.4688348750351,0.36542991700116545,None,,,,,,,,,,,,330,001,,,2026-05-27_11h28.53.494,encodingtask,,2025.2.4,None,2026-05-27 11h28.54.742385 -0400,
2,19,19,0,stimuli/scenes/JA_1.jpg,Jungle,Malbow,stimuli/items/undersea_object_9.png,Undersea,object,si,stimuli/integrated/jungle_a_undersea_object_9.jpg,stimuli/recalled/recalled_jungle_a_undersea_object_9.jpg,p,1,0.4024814590229653,None,,,,0,1,1,1,0,19,19,19,,,,,392.49555595900165,,,,,,,,,,,,,,,,,,,,,,,,392.49005595903145,392.49555595900165,394.47912733402336,394.47917641699314,394.4841165000107,394.4841165000107,,,394.8974377500126,p,1,394.8975852089934,394.9088021669886,395.9163355419878,395.8950595839997,0.4024814590229653,None,,,,,,,,,,,394.4841165000107,330,001,,,2026-05-27_11h28.53.494,encodingtask,,2025.2.4,None,2026-05-27 11h28.54.742385 -0400,
2,20,20,0,stimuli/scenes/UA_1.jpg,Undersea,Tulon,stimuli/items/undersea_animal_16.png,Undersea,animal,sc,stimuli/integrated/ocean_a_undersea_animal_16.jpg,stimuli/recalled/recalled_ocean_a_undersea_animal_16.jpg,q,1,0.47721300000557676,None,,,,0,1,1,1,0,20,20,20,,,,,395.9163355419878,,,,,,,,,,,,,,,,,,,,,,,,395.9109947499819,395.9163355419878,397.9011461670161,397.90121812501457,397.91226429201197,397.91226429201197,,,398.39706945902435,q,1,398.3972575420048,398.402714041993,399.4242486670264,399.39598308398854,0.47721300000557676,None,,,,,,,,,,,,330,001,,,2026-05-27_11h28.53.494,encodingtask,,2025.2.4,None,2026-05-27 11h28.54.742385 -0400,
2,21,21,0,stimuli/scenes/JA_1.jpg,Jungle,Malbow,stimuli/items/undersea_animal_14.png,Undersea,animal,si,stimuli/integrated/jungle_a_undersea_animal_14.jpg,stimuli/recalled/recalled_jungle_a_undersea_animal_14.jpg,p,1,0.32506866700714454,None,,,,0,1,1,1,0,21,21,21,,,,,399.4242486670264,,,,,,,,,,,,,,,,,,,,,,,,399.41847554198466,399.4242486670264,401.400567417033,401.40062700002454,401.41132608399494,401.41132608399494,,,401.74612116703065,p,1,401.7462790000136,401.75391312502325,402.77566395897884,402.74588820902864,0.32506866700714454,None,,,,,,,,,,,,330,001,,,2026-05-27_11h28.53.494,encodingtask,,2025.2.4,None,2026-05-27 11h28.54.742385 -0400,
2,22,22,0,stimuli/scenes/UA_1.jpg,Undersea,Tulon,stimuli/items/undersea_animal_13.png,Undersea,animal,sc,stimuli/integrated/ocean_a_undersea_animal_13.jpg,stimuli/recalled/recalled_ocean_a_undersea_animal_13.jpg,q,1,0.5105074580060318,None,,,,0,1,1,1,0,22,22,22,,,,,402.77566395897884,,,,,,,,,,,,,,,,,,,,,,,,402.7695219590096,402.77566395897884,404.7509438340203,404.7510248750332,404.76187866699183,404.76187866699183,,,405.2807411670219,q,1,405.28091874998063,405.28613412502455,406.3117145419819,406.27920866699424,0.5105074580060318,None,,,,,,,,,,,,330,001,,,2026-05-27_11h28.53.494,encodingtask,,2025.2.4,None,2026-05-27 11h28.54.742385 -0400,
2,23,23,0,stimuli/scenes/JA_1.jpg,Jungle,Malbow,stimuli/items/jungle_object_12.png,Jungle,object,sc,stimuli/integrated/jungle_a_jungle_object_12.jpg,stimuli/recalled/recalled_jungle_a_jungle_object_12.jpg,q,1,0.41387562500312924,None,,,,0,1,1,1,0,23,23,23,,,,,406.3117145419819,,,,,,,,,,,,,,,,,,,,,,,,406.3058932920103,406.3117145419819,408.2854475839995,408.2855182500207,408.29807129199617,408.29807129199617,,,408.7137371249846,q,1,408.7138987919898,408.7193732500309,409.73722687503323,409.7126657090266,0.41387562500312924,None,,,,,,,,,,,,330,001,,,2026-05-27_11h28.53.494,encodingtask,,2025.2.4,None,2026-05-27 11h28.54.742385 -0400,
2,24,24,0,stimuli/scenes/UB_1.jpg,Undersea,Somar,stimuli/items/jungle_animal_18.png,Jungle,animal,si,stimuli/integrated/ocean_b_jungle_animal_18.jpg,stimuli/recalled/recalled_ocean_b_jungle_animal_18.jpg,p,1,0.527385207999032,None,,,,0,1,1,1,0,24,24,24,,,,,409.73722687503323,,,,,,,,,,,,,,,,,,,,,,,,409.73129758401774,409.73722687503323,411.71843470900785,411.7185279169935,411.72877066698857,411.72877066698857,,,412.2636411249987,p,1,412.2637504590093,412.27361633401597,413.2912564169965,413.26266754203243,0.527385207999032,None,,,,,,,,,,,,330,001,,,2026-05-27_11h28.53.494,encodingtask,,2025.2.4,None,2026-05-27 11h28.54.742385 -0400,
2,25,25,0,stimuli/scenes/JB_1.jpg,Jungle,Negvi,stimuli/items/undersea_animal_18.png,Undersea,animal,si,stimuli/integrated/jungle_b_undersea_animal_18.jpg,stimuli/recalled/recalled_jungle_b_undersea_animal_18.jpg,p,1,0.7148326250026003,None,,,,0,1,1,1,0,25,25,25,,,,,413.2912564169965,,,,,,,,,,,,,,,,,,,,,,,,413.28595179202966,413.2912564169965,415.26703654200537,415.26706916699186,415.2782578750048,415.2782578750048,,,415.9971945420257,p,1,415.99735629203497,416.0031310840277,417.02124354202533,416.9957901670132,0.7148326250026003,None,,,,,,,,,,,,330,001,,,2026-05-27_11h28.53.494,encodingtask,,2025.2.4,None,2026-05-27 11h28.54.742385 -0400,
2,26,26,0,stimuli/scenes/UB_1.jpg,Undersea,Somar,stimuli/items/undersea_animal_5.png,Undersea,animal,sc,stimuli/integrated/ocean_b_undersea_animal_5.jpg,stimuli/recalled/recalled_ocean_b_undersea_animal_5.jpg,None,0,,,,,,0,1,1,1,0,26,26,26,,,,,417.02124354202533,,,,,,,,,,,,,,,,,,,,,,,,417.0154757919954,417.02124354202533,419.0012515420094,419.0013298339909,419.01191345899133,419.01191345899133,420.0004007089883,420.0004007089883,419.99578066699905,None,0,419.99586600001203,420.0004007089883,421.00834825000493,420.98454462498194,,,,,,,,,,,,,,330,001,,,2026-05-27_11h28.53.494,encodingtask,,2025.2.4,None,2026-05-27 11h28.54.742385 -0400,
2,27,27,0,stimuli/scenes/JB_1.jpg,Jungle,Negvi,stimuli/items/jungle_animal_11.png,Jungle,animal,sc,stimuli/integrated/jungle_b_jungle_animal_11.jpg,stimuli/recalled/recalled_jungle_b_jungle_animal_11.jpg,p,0,0.8339348750305362,None,,,,0,1,1,1,0,27,27,27,,,,,421.00834825000493,,,,,,,,,,,,,,,,,,,,,,,,421.003067291982,421.00834825000493,422.9956013750052,422.99565558403265,423.0010616669897,423.0010616669897,,,423.8469157090294,p,0,423.84710058401106,423.85872308403486,424.86968587501906,424.8456315420335,0.8339348750305362,None,,,,,,,,,,,423.0010616669897,330,001,,,2026-05-27_11h28.53.494,encodingtask,,2025.2.4,None,2026-05-27 11h28.54.742385 -0400,
2,28,28,0,stimuli/scenes/UB_1.jpg,Undersea,Somar,stimuli/items/jungle_object_1.png,Jungle,object,si,stimuli/integrated/ocean_b_jungle_object_1.jpg,stimuli/recalled/recalled_ocean_b_jungle_object_1.jpg,p,1,0.2561492919921875,None,,,,0,1,1,1,0,28,28,28,,,,,424.86968587501906,,,,,,,,,,,,,,,,,,,,,,,,424.8641648750054,424.86968587501906,426.8511786250165,426.8512628750177,426.8619132920285,426.8619132920285,,,427.13059558399254,p,1,427.13082150003174,427.14192108402494,428.15539783402346,428.12928724999074,0.2561492919921875,None,,,,,,,,,,,,330,001,,,2026-05-27_11h28.53.494,encodingtask,,2025.2.4,None,2026-05-27 11h28.54.742385 -0400,
2,29,29,0,stimuli/scenes/UA_1.jpg,Undersea,Tulon,stimuli/items/jungle_animal_7.png,Jungle,animal,si,stimuli/integrated/ocean_a_jungle_animal_7.jpg,stimuli/recalled/recalled_ocean_a_jungle_animal_7.jpg,q,0,0.36450504197273403,None,,,,0,1,1,1,0,29,29,29,,,,,428.15539783402346,,,,,,,,,,,,,,,,,,,,,,,,428.1499864590005,428.15539783402346,430.1341293749865,430.13420945900725,430.1454217500286,430.1454217500286,,,430.51325912500033,q,0,430.51336820900906,430.51825458399253,431.53947887499817,431.5124372090213,0.36450504197273403,None,,,,,,,,,,,,330,001,,,2026-05-27_11h28.53.494,encodingtask,,2025.2.4,None,2026-05-27 11h28.54.742385 -0400,
2,30,30,0,stimuli/scenes/UB_1.jpg,Undersea,Somar,stimuli/items/jungle_animal_19.png,Jungle,animal,si,stimuli/integrated/ocean_b_jungle_animal_19.jpg,stimuli/recalled/recalled_ocean_b_jungle_animal_19.jpg,p,1,0.24117783299880102,None,,,,0,1,1,1,0,30,30,30,,,,,431.53947887499817,,,,,,,,,,,,,,,,,,,,,,,,431.5336066670134,431.53947887499817,433.5177855420043,433.517895166995,433.52859458402963,433.52859458402963,,,433.78001445898553,p,1,433.78012158401543,433.7912688750075,434.8026796670165,434.77887495898176,0.24117783299880102,None,,,,,,,,,,,,330,001,,,2026-05-27_11h28.53.494,encodingtask,,2025.2.4,None,2026-05-27 11h28.54.742385 -0400,
2,31,31,0,stimuli/scenes/JA_1.jpg,Jungle,Malbow,stimuli/items/jungle_object_10.png,Jungle,object,sc,stimuli/integrated/jungle_a_jungle_object_10.jpg,stimuli/recalled/recalled_jungle_a_jungle_object_10.jpg,q,1,0.2265880000195466,None,,,,0,1,1,1,0,31,31,31,,,,,434.8026796670165,,,,,,,,,,,,,,,,,,,,,,,,434.79696987499483,434.8026796670165,436.7846046250197,436.7846815420198,436.7951857090229,436.7951857090229,,,437.03028012503637,q,1,437.03042012499645,437.04077895899536,438.052215542004,438.0287538340199,0.2265880000195466,None,,,,,,,,,,,,330,001,,,2026-05-27_11h28.53.494,encodingtask,,2025.2.4,None,2026-05-27 11h28.54.742385 -0400,
2,32,32,0,stimuli/scenes/UB_1.jpg,Undersea,Somar,stimuli/items/undersea_object_20.png,Undersea,object,sc,stimuli/integrated/ocean_b_undersea_object_20.jpg,stimuli/recalled/recalled_ocean_b_undersea_object_20.jpg,None,0,,,,,,0,1,1,1,0,32,32,32,,,,,438.052215542004,,,,,,,,,,,,,,,,,,,,,,,,438.04635416698875,438.052215542004,440.0341421670164,440.0342262919876,440.04521679203026,440.04521679203026,441.03451545903226,441.03451545903226,441.02918420900824,None,0,441.029291792016,441.03451545903226,442.0459987089853,442.0176351669943,,,,,,,,,,,,,,330,001,,,2026-05-27_11h28.53.494,encodingtask,,2025.2.4,None,2026-05-27 11h28.54.742385 -0400,
2,33,33,0,stimuli/scenes/JB_1.jpg,Jungle,Negvi,stimuli/items/jungle_animal_6.png,Jungle,animal,sc,stimuli/integrated/jungle_b_jungle_animal_6.jpg,stimuli/recalled/recalled_jungle_b_jungle_animal_6.jpg,q,1,0.2673655840335414,None,,,,0,1,1,1,0,33,33,33,,,,,442.0459987089853,,,,,,,,,,,,,,,,,,,,,,,,442.040082291991,442.0459987089853,444.0287007500301,444.02875520900125,444.03416866698535,444.03416866698535,,,444.3135964589892,q,1,444.31378600001335,444.32506595901214,445.33869966701604,445.31206858402584,0.2673655840335414,None,,,,,,,,,,,444.03416866698535,330,001,,,2026-05-27_11h28.53.494,encodingtask,,2025.2.4,None,2026-05-27 11h28.54.742385 -0400,
2,34,34,0,stimuli/scenes/UB_1.jpg,Undersea,Somar,stimuli/items/jungle_object_2.png,Jungle,object,si,stimuli/integrated/ocean_b_jungle_object_2.jpg,stimuli/recalled/recalled_ocean_b_jungle_object_2.jpg,p,1,0.646144040976651,None,,,,0,1,1,1,0,34,34,34,,,,,445.33869966701604,,,,,,,,,,,,,,,,,,,,,,,,445.33293199999025,445.33869966701604,447.3171946250368,447.31727337499615,447.3283164590248,447.3283164590248,,,447.97984754201025,p,1,447.97995687503135,447.9850825840258,449.00829204201,448.9790788749815,0.646144040976651,None,,,,,,,,,,,,330,001,,,2026-05-27_11h28.53.494,encodingtask,,2025.2.4,None,2026-05-27 11h28.54.742385 -0400,
2,35,35,0,stimuli/scenes/JB_1.jpg,Jungle,Negvi,stimuli/items/jungle_animal_20.png,Jungle,animal,sc,stimuli/integrated/jungle_b_jungle_animal_20.jpg,stimuli/recalled/recalled_jungle_b_jungle_animal_20.jpg,q,1,0.22952337499009445,None,,,,0,1,1,1,0,35,35,35,,,,,449.00829204201,,,,,,,,,,,,,,,,,,,,,,,,449.0024658750044,449.00829204201,450.9845594590297,450.98462712502806,450.99508491699817,450.99508491699817,,,451.2297818749794,q,1,451.2298926250078,451.23536712501664,452.2530202920316,452.22874595900066,0.22952337499009445,None,,,,,,,,,,,,330,001,,,2026-05-27_11h28.53.494,encodingtask,,2025.2.4,None,2026-05-27 11h28.54.742385 -0400,
2,36,36,0,stimuli/scenes/UA_1.jpg,Undersea,Tulon,stimuli/items/undersea_animal_9.png,Undersea,animal,sc,stimuli/integrated/ocean_a_undersea_animal_9.jpg,stimuli/recalled/recalled_ocean_a_undersea_animal_9.jpg,q,1,0.23730866599362344,None,,,,0,1,1,1,0,36,36,36,,,,,452.2530202920316,,,,,,,,,,,,,,,,,,,,,,,,452.24752866697963,452.2530202920316,454.2341491249972,454.2342066669953,454.2450521250139,454.2450521250139,,,454.4848407090176,q,1,454.4849589589867,454.4992458749912,455.50754483399214,455.4840269170236,0.23730866599362344,None,,,,,,,,,,,,330,001,,,2026-05-27_11h28.53.494,encodingtask,,2025.2.4,None,2026-05-27 11h28.54.742385 -0400,
2,37,37,0,stimuli/scenes/UB_1.jpg,Undersea,Somar,stimuli/items/undersea_object_19.png,Undersea,object,sc,stimuli/integrated/ocean_b_undersea_object_19.jpg,stimuli/recalled/recalled_ocean_b_undersea_object_19.jpg,q,1,0.3125063749612309,None,,,,0,1,1,1,0,37,37,37,,,,,455.50754483399214,,,,,,,,,,,,,,,,,,,,,,,,455.50173825002275,455.50754483399214,457.49533058400266,457.4953947920003,457.5005973749794,457.5005973749794,,,457.8186730419984,q,1,457.81879262498114,457.84553679201053,,458.82857195899123,0.3125063749612309,None,,,,,,,,,,,,330,001,,,2026-05-27_11h28.53.494,encodingtask,,2025.2.4,None,2026-05-27 11h28.54.742385 -0400,
2,38,38,0,stimuli/scenes/JB_1.jpg,Jungle,Negvi,stimuli/items/jungle_object_5.png,Jungle,object,sc,stimuli/integrated/jungle_b_jungle_object_5.jpg,stimuli/recalled/recalled_jungle_b_jungle_object_5.jpg,q,1,0.2633749580127187,None,,,,0,1,1,1,0,38,38,38,,,,,458.85278045898303,,,,,,,,,,,,,,,,,,,,,,,,458.84689412498847,458.85278045898303,460.82844866701635,460.82850545900874,460.8337529170094,460.8337529170094,,,461.10210720897885,q,1,461.1022354590241,461.11648908403004,462.12452770903474,462.1005520420149,0.2633749580127187,None,,,,,,,,,,,,330,001,,,2026-05-27_11h28.53.494,encodingtask,,2025.2.4,None,2026-05-27 11h28.54.742385 -0400,
2,39,39,0,stimuli/scenes/JA_1.jpg,Jungle,Malbow,stimuli/items/jungle_animal_14.png,Jungle,animal,sc,stimuli/integrated/jungle_a_jungle_animal_14.jpg,stimuli/recalled/recalled_jungle_a_jungle_animal_14.jpg,q,1,0.8148737080045976,None,,,,0,1,1,1,0,39,39,39,,,,,462.12452770903474,,,,,,,,,,,,,,,,,,,,,,,,462.1191323340172,462.12452770903474,464.1121135840076,464.1121777090011,464.11748504202114,464.11748504202114,,,464.93554595898604,q,1,464.9357342090225,464.950476375001,465.95854800002417,465.93386370898224,0.8148737080045976,None,,,,,,,,,,,,330,001,,,2026-05-27_11h28.53.494,encodingtask,,2025.2.4,None,2026-05-27 11h28.54.742385 -0400,
2,40,40,0,stimuli/scenes/JB_1.jpg,Jungle,Negvi,stimuli/items/jungle_animal_8.png,Jungle,animal,sc,stimuli/integrated/jungle_b_jungle_animal_8.jpg,stimuli/recalled/recalled_jungle_b_jungle_animal_8.jpg,q,1,0.4237212910084054,None,,,,0,1,1,1,0,40,40,40,,,,,465.95854800002417,,,,,,,,,,,,,,,,,,,,,,,,465.9531658340129,465.95854800002417,467.9453499590163,467.945429000014,467.9501982500078,467.9501982500078,,,468.37947029201314,q,1,468.3795802090317,468.3846952919848,469.4043280000333,469.37891820899677,0.4237212910084054,None,,,,,,,,,,,,330,001,,,2026-05-27_11h28.53.494,encodingtask,,2025.2.4,None,2026-05-27 11h28.54.742385 -0400,
2,41,41,0,stimuli/scenes/UB_1.jpg,Undersea,Somar,stimuli/items/undersea_object_14.png,Undersea,object,sc,stimuli/integrated/ocean_b_undersea_object_14.jpg,stimuli/recalled/recalled_ocean_b_undersea_object_14.jpg,q,1,0.3188333750003949,None,,,,0,1,1,1,0,41,41,41,,,,,469.4043280000333,,,,,,,,,,,,,,,,,,,,,,,,469.39863737497944,469.4043280000333,471.3838651669794,471.3839409170323,471.39499129203614,471.39499129203614,,,471.71803616703255,q,1,471.71814883401385,471.74539954203647,,472.7286108750268,0.3188333750003949,None,,,,,,,,,,,,330,001,,,2026-05-27_11h28.53.494,encodingtask,,2025.2.4,None,2026-05-27 11h28.54.742385 -0400,
2,42,42,0,stimuli/scenes/JB_1.jpg,Jungle,Negvi,stimuli/items/undersea_object_6.png,Undersea,object,si,stimuli/integrated/jungle_b_undersea_object_6.jpg,stimuli/recalled/recalled_jungle_b_undersea_object_6.jpg,q,0,0.2483129589818418,None,,,,0,1,1,1,0,42,42,42,,,,,472.7537199590006,,,,,,,,,,,,,,,,,,,,,,,,472.7481302919914,472.7537199590006,474.7284190420178,474.72847899998305,474.73343312501675,474.73343312501675,,,474.98447912500706,q,0,474.98459424998146,475.01193770900136,,475.9951292920159,0.2483129589818418,None,,,,,,,,,,,,330,001,,,2026-05-27_11h28.53.494,encodingtask,,2025.2.4,None,2026-05-27 11h28.54.742385 -0400,
2,43,43,0,stimuli/scenes/JA_1.jpg,Jungle,Malbow,stimuli/items/jungle_animal_2.png,Jungle,animal,sc,stimuli/integrated/jungle_a_jungle_animal_2.jpg,stimuli/recalled/recalled_jungle_a_jungle_animal_2.jpg,q,1,0.550772791961208,None,,,,0,1,1,1,0,43,43,43,,,,,476.02242179203313,,,,,,,,,,,,,,,,,,,,,,,,476.0172470000107,476.02242179203313,477.9950361250085,477.99509525002213,477.9997868750361,477.9997868750361,,,478.5622200000216,q,1,478.5623686250183,478.56967991701094,479.58951516699744,479.5616256670328,0.550772791961208,None,,,,,,,,,,,,330,001,,,2026-05-27_11h28.53.494,encodingtask,,2025.2.4,None,2026-05-27 11h28.54.742385 -0400,
2,44,44,0,stimuli/scenes/JB_1.jpg,Jungle,Negvi,stimuli/items/jungle_animal_12.png,Jungle,animal,sc,stimuli/integrated/jungle_b_jungle_animal_12.jpg,stimuli/recalled/recalled_jungle_b_jungle_animal_12.jpg,q,1,0.3694123339955695,None,,,,0,1,1,1,0,44,44,44,,,,,479.58951516699744,,,,,,,,,,,,,,,,,,,,,,,,479.5838228340144,479.58951516699744,481.5671907920041,481.5672652919893,481.57821383402916,481.57821383402916,,,481.9524331249995,q,1,481.95260225003585,481.96601949998876,482.97798483399674,482.9500359999947,0.3694123339955695,None,,,,,,,,,,,,330,001,,,2026-05-27_11h28.53.494,encodingtask,,2025.2.4,None,2026-05-27 11h28.54.742385 -0400,
2,45,45,0,stimuli/scenes/UB_1.jpg,Undersea,Somar,stimuli/items/jungle_animal_5.png,Jungle,animal,si,stimuli/integrated/ocean_b_jungle_animal_5.jpg,stimuli/recalled/recalled_ocean_b_jungle_animal_5.jpg,p,1,0.21026991598773748,None,,,,0,1,1,1,0,45,45,45,,,,,482.97798483399674,,,,,,,,,,,,,,,,,,,,,,,,482.97245275002206,482.97798483399674,484.96175499999663,484.96182154200505,484.96723420900526,484.96723420900526,,,485.17966045899084,p,1,485.17978091700934,485.1856129170046,486.206796124985,486.1785423749825,0.21026991598773748,None,,,,,,,,,,,,330,001,,,2026-05-27_11h28.53.494,encodingtask,,2025.2.4,None,2026-05-27 11h28.54.742385 -0400,
2,46,46,0,stimuli/scenes/JB_1.jpg,Jungle,Negvi,stimuli/items/undersea_animal_17.png,Undersea,animal,si,stimuli/integrated/jungle_b_undersea_animal_17.jpg,stimuli/recalled/recalled_jungle_b_undersea_animal_17.jpg,p,1,0.22362824995070696,None,,,,0,1,1,1,0,46,46,46,,,,,486.206796124985,,,,,,,,,,,,,,,,,,,,,,,,486.2009947919869,486.206796124985,488.18480883399025,488.1848873340059,488.1947877500206,488.1947877500206,,,488.42930841702037,p,1,488.42941554199206,488.4399111670209,489.45129437500145,489.428680958983,0.22362824995070696,None,,,,,,,,,,,,330,001,,,2026-05-27_11h28.53.494,encodingtask,,2025.2.4,None,2026-05-27 11h28.54.742385 -0400,
2,47,47,0,stimuli/scenes/UB_1.jpg,Undersea,Somar,stimuli/items/jungle_object_14.png,Jungle,object,si,stimuli/integrated/ocean_b_jungle_object_14.jpg,stimuli/recalled/recalled_ocean_b_jungle_object_14.jpg,p,1,0.22969150001881644,None,,,,0,1,1,1,0,47,47,47,,,,,489.45129437500145,,,,,,,,,,,,,,,,,,,,,,,,489.44555112498347,489.45129437500145,491.4337969170301,491.433869459026,491.4446645419812,491.4446645419812,,,491.67969079199247,p,1,491.6797981670243,491.68511187500553,492.7030969170155,492.67852966702776,0.22969150001881644,None,,,,,,,,,,,,330,001,,,2026-05-27_11h28.53.494,encodingtask,,2025.2.4,None,2026-05-27 11h28.54.742385 -0400,
2,48,48,0,stimuli/scenes/JB_1.jpg,Jungle,Negvi,stimuli/items/jungle_object_20.png,Jungle,object,sc,stimuli/integrated/jungle_b_jungle_object_20.jpg,stimuli/recalled/recalled_jungle_b_jungle_object_20.jpg,q,1,0.4472242090268992,None,,,,0,1,1,1,0,48,48,48,,,,,492.7030969170155,,,,,,,,,,,,,,,,,,,,,,,,492.69728504202794,492.7030969170155,494.6840530420304,494.68412495899247,494.6949753339868,494.6949753339868,,,495.1460181250004,q,1,495.14612941700034,495.15149741701316,496.1557178340154,496.13418383401586,0.4472242090268992,None,,,,,,,,,,,,330,001,,,2026-05-27_11h28.53.494,encodingtask,,2025.2.4,None,2026-05-27 11h28.54.742385 -0400,
2,49,49,0,stimuli/scenes/UA_1.jpg,Undersea,Tulon,stimuli/items/undersea_object_8.png,Undersea,object,sc,stimuli/integrated/ocean_a_undersea_object_8.jpg,stimuli/recalled/recalled_ocean_a_undersea_object_8.jpg,q,1,0.33488333300920203,None,,,,0,1,1,1,0,49,49,49,,,,,496.1557178340154,,,,,,,,,,,,,,,,,,,,,,,,496.14998662500875,496.1557178340154,498.1450395419961,498.1451019170345,498.15027408400783,498.15027408400783,,,498.49626074999105,q,1,498.4963783340063,498.5077882090118,499.51870837499155,499.49518620898016,0.33488333300920203,None,,,,,,,,,,,498.15027408400783,330,001,,,2026-05-27_11h28.53.494,encodingtask,,2025.2.4,None,2026-05-27 11h28.54.742385 -0400,
2,50,50,0,stimuli/scenes/JB_1.jpg,Jungle,Negvi,stimuli/items/undersea_object_2.png,Undersea,object,si,stimuli/integrated/jungle_b_undersea_object_2.jpg,stimuli/recalled/recalled_jungle_b_undersea_object_2.jpg,None,0,,,,,,0,1,1,1,0,50,50,50,,,,,499.51870837499155,,,,,,,,,,,,,,,,,,,,,,,,499.5129191669985,499.51870837499155,501.50033075001556,501.5004029169795,501.5114925840171,501.5114925840171,502.5010701669962,502.5010701669962,502.4952650000341,None,0,502.49538475001464,502.5010701669962,503.50513150001643,503.48398108402034,,,,,,,,,,,,,,330,001,,,2026-05-27_11h28.53.494,encodingtask,,2025.2.4,None,2026-05-27 11h28.54.742385 -0400,
2,51,51,0,stimuli/scenes/UA_1.jpg,Undersea,Tulon,stimuli/items/jungle_animal_13.png,Jungle,animal,si,stimuli/integrated/ocean_a_jungle_animal_13.jpg,stimuli/recalled/recalled_ocean_a_jungle_animal_13.jpg,None,0,,,,,,0,1,1,1,0,51,51,51,,,,,503.50513150001643,,,,,,,,,,,,,,,,,,,,,,,,503.4994671670138,503.50513150001643,505.49523987498833,505.49529362499015,505.5002207090147,505.5002207090147,506.494724499993,506.494724499993,506.4832687500166,None,0,506.48335041699465,506.494724499993,507.50307637499645,507.4784212090308,,,,,,,,,,,,,505.5002207090147,330,001,,,2026-05-27_11h28.53.494,encodingtask,,2025.2.4,None,2026-05-27 11h28.54.742385 -0400,
2,52,52,0,stimuli/scenes/JB_1.jpg,Jungle,Negvi,stimuli/items/jungle_object_17.png,Jungle,object,sc,stimuli/integrated/jungle_b_jungle_object_17.jpg,stimuli/recalled/recalled_jungle_b_jungle_object_17.jpg,None,0,,,,,,0,1,1,1,0,52,52,52,,,,,507.50307637499645,,,,,,,,,,,,,,,,,,,,,,,,507.49732720898464,507.50307637499645,509.4949501249939,509.49500870902557,509.4998249170021,509.4998249170021,510.49498620902887,510.49498620902887,510.4838260420365,None,0,510.48391191702103,510.49498620902887,511.50165404198924,511.4783054590225,,,,,,,,,,,,,509.4998249170021,330,001,,,2026-05-27_11h28.53.494,encodingtask,,2025.2.4,None,2026-05-27 11h28.54.742385 -0400,
2,53,53,0,stimuli/scenes/UA_1.jpg,Undersea,Tulon,stimuli/items/jungle_object_11.png,Jungle,object,si,stimuli/integrated/ocean_a_jungle_object_11.jpg,stimuli/recalled/recalled_ocean_a_jungle_object_11.jpg,None,0,,,,,,0,1,1,1,0,53,53,53,,,,,511.50165404198924,,,,,,,,,,,,,,,,,,,,,,,,511.495934125036,511.50165404198924,513.4948872500099,513.4949322920293,513.5001336670248,513.5001336670248,514.494751167018,514.494751167018,514.4833497499931,None,0,514.4834305840195,514.494751167018,515.503202833992,515.4782401249977,,,,,,,,,,,,,513.5001336670248,330,001,,,2026-05-27_11h28.53.494,encodingtask,,2025.2.4,None,2026-05-27 11h28.54.742385 -0400,
,54,54,0,stimuli/scenes/JB_1.jpg,Jungle,Negvi,stimuli/items/undersea_object_18.png,Undersea,object,si,stimuli/integrated/jungle_b_undersea_object_18.jpg,stimuli/recalled/recalled_jungle_b_undersea_object_18.jpg,,,,,,,,,,,,0,54,54,54,,,,,515.503202833992,,,,,,,,,,,,,,,,,,,,,,,,515.4976452499977,515.503202833992,517.494835208985,517.4948796670069,517.4997903340263,517.4997903340263,518.4946470420109,518.4946470420109,518.4831284169923,None,0,518.4832149590366,518.4946470420109,,,,,,,,,,,,,,,517.4997903340263,,,,,,,,,,,
