run,thisN,thisTrialN,thisRepN,scene_stimulus,scene_cat,scene_label,item_stimulus,item_cat,item_type,congruency,integrated_stimulus,key_resp_congruency.keys,key_resp_congruency.corr,key_resp_congruency.rt,key_resp_congruency.duration,key_resp_next_run.keys,key_resp_next_run.rt,key_resp_next_run.duration,runs_trial.thisRepN,runs_trial.thisTrialN,runs_trial.thisN,runs_trial.thisIndex,trials.thisRepN,trials.thisTrialN,trials.thisN,trials.thisIndex,between_run_inst.thisRepN,between_run_inst.thisTrialN,between_run_inst.thisN,between_run_inst.thisIndex,thisRow.t,notes,get_relatedness_keys.started,get_relatedness_keys.stopped,instructions_screen.started,text_instructions.started,key_welcome.started,instructions_screen.stopped,key_welcome.keys,key_welcome.rt,key_welcome.duration,instruction_keys.started,text_keys.started,key_resp_keysInst.started,instruction_keys.stopped,key_resp_keysInst.keys,key_resp_keysInst.rt,key_resp_keysInst.duration,blank2000.started,text_2.started,text_2.stopped,blank2000.stopped,get_run_stim_list.started,get_run_stim_list.stopped,integrated_scene_presentation.started,image_integrated.started,integrated_scene_presentation.stopped,congruency_response.started,text_congruency.started,key_resp_congruency.started,congruency_response.stopped,trials.key_resp_congruency.keys,trials.key_resp_congruency.corr,trials.key_resp_congruency.rt,trials.key_resp_congruency.duration,blank1000.started,text_8.started,text_8.stopped,blank1000.stopped,text_congruency.stopped,key_resp_congruency.stopped,image_integrated.stopped,is_last_run.started,is_last_run.stopped,between_run_pause.started,text_run_pause.started,text_relatedness_pause.started,key_resp_next_run.started,between_run_pause.stopped,between_run_inst.key_resp_next_run.keys,between_run_inst.key_resp_next_run.rt,between_run_inst.key_resp_next_run.duration,end_screen.started,text_end.started,key_end.started,end_screen.stopped,key_end.keys,key_end.rt,key_end.duration,participant,session,group,delay,date,expName,expVersion,psychopyVersion,frameRate,expStart,
,,,,,,,,,,,,,,,,,,,,,,,,,,,,,,,,,0.01801508292555809,0.018120374996215105,,,,,,,,,,,,,,,,,,,,,,,,,,,,,,,,,,,,,,,,,,,,,,,,,,,,,,,,510,001,,,2026-03-28_20h56.20.269,encodingtask,,2025.2.4,None,2026-03-28 20h56.20.619229 +0100,
,,,,,,,,,,,,,,,,,,,,,,,,,,,,,,,,,,,0.01814816694241017,0.025929207913577557,1.0152576249092817,2.4050762079423293,space,1.02559208299499,None,,,,,,,,,,,,,,,,,,,,,,,,,,,,,,,,,,,,,,,,,,,,,,,,,510,001,,,2026-03-28_20h56.20.269,encodingtask,,2025.2.4,None,2026-03-28 20h56.20.619229 +0100,
,,,,,,,,,,,,,,,,,,,,,,,,,,,,,,,,,,,,,,,,,,2.418210541945882,2.4501971669960767,2.4501971669960767,3.5105304579483345,space,1.0503790410002694,None,,,,,,,,,,,,,,,,,,,,,,,,,,,,,,,,,,,,,,,,,,510,001,,,2026-03-28_20h56.20.269,encodingtask,,2025.2.4,None,2026-03-28 20h56.20.619229 +0100,
,,,,,,,,,,,,,,,,,,,,,,,,,,,,,,,,,,,,,,,,,,,,,,,,,3.51060525001958,3.5199866669718176,5.617991499952041,5.509413332911208,,,,,,,,,,,,,,,,,,,,,,,,,,,,,,,,,,,,,,510,001,,,2026-03-28_20h56.20.269,encodingtask,,2025.2.4,None,2026-03-28 20h56.20.619229 +0100,
1,0,0,0,stimuli/TESTscenes/UB_1.jpg,Undersea,Malbow,stimuli/items/undersea_object_12.png,Undersea,object,sc,stimuli/integrated/undersea_b_undersea_object_12.jpg,p,1,0.5156219589989632,None,,,,0,0,0,0,0,0,0,0,,,,,5.617991499952041,,,,,,,,,,,,,,,,,,,,,,5.5371801250148565,5.537240582983941,5.612184041994624,5.617991499952041,7.542478457908146,7.542515832930803,7.5483837919309735,7.5483837919309735,8.07671870791819,p,1,0.5156219589989632,None,8.076822166913189,8.092277416959405,9.113261500024237,9.075872207991779,,,,,,,,,,,,,,,,,,,,,510,001,,,2026-03-28_20h56.20.269,encodingtask,,2025.2.4,None,2026-03-28 20h56.20.619229 +0100,
1,1,1,0,stimuli/TESTscenes/UA_1.jpg,Undersea,Somar,stimuli/items/jungle_animal_12.png,Jungle,animal,si,stimuli/integrated/undersea_b_jungle_animal_12.jpg,q,1,0.5603381249820814,None,,,,0,0,0,0,0,1,1,1,,,,,9.113261500024237,,,,,,,,,,,,,,,,,,,,,,,,9.108222124981694,9.113261500024237,11.080756291979924,11.080783374956809,11.092367541976273,11.092367541976273,11.65996512491256,q,1,0.5603381249820814,None,11.660043832962401,11.664273291942663,12.683659542002715,12.647337874979712,,,,,,,,,,,,,,,,,,,,,510,001,,,2026-03-28_20h56.20.269,encodingtask,,2025.2.4,None,2026-03-28 20h56.20.619229 +0100,
1,2,2,0,stimuli/TESTscenes/JB_1.jpg,Jungle,Tulon,stimuli/items/undersea_animal_24.png,Undersea,animal,si,stimuli/integrated/jungle_b_undersea_animal_24.jpg,q,1,0.7165961670689285,None,,,,0,0,0,0,0,2,2,2,,,,,12.683659542002715,,,,,,,,,,,,,,,,,,,,,,,,12.678161999909207,12.683659542002715,14.664875917020254,14.664933957974426,14.675890416954644,14.675890416954644,15.393922916962765,q,1,0.7165961670689285,None,15.394033542019315,15.399134624982253,16.424215707927942,16.392469333019108,,,,,,,,,,,,,,,,,,,,,510,001,,,2026-03-28_20h56.20.269,encodingtask,,2025.2.4,None,2026-03-28 20h56.20.619229 +0100,
1,3,3,0,stimuli/TESTscenes/UB_1.jpg,Undersea,Malbow,stimuli/items/undersea_animal_18.png,Undersea,animal,sc,stimuli/integrated/undersea_b_undersea_animal_18.jpg,q,0,0.48138866596855223,None,,,,0,0,0,0,0,3,3,3,,,,,16.424215707927942,,,,,,,,,,,,,,,,,,,,,,,,16.41904083301779,16.424215707927942,18.396599208004773,18.39663874998223,18.40905070793815,18.40905070793815,18.893250291934237,q,0,0.48138866596855223,None,18.89332829194609,18.897587041952647,19.911086292006075,19.88146941701416,,,,,,,,,,,,,,,,,,,,,510,001,,,2026-03-28_20h56.20.269,encodingtask,,2025.2.4,None,2026-03-28 20h56.20.619229 +0100,
1,4,4,0,stimuli/TESTscenes/JB_1.jpg,Jungle,Tulon,stimuli/items/undersea_object_23.png,Undersea,object,si,stimuli/integrated/jungle_b_undersea_object_23.jpg,p,0,0.48215370799880475,None,,,,0,0,0,0,0,4,4,4,,,,,19.911086292006075,,,,,,,,,,,,,,,,,,,,,,,,19.905967207974754,19.911086292006075,21.897447541938163,21.897521166945808,21.90910641697701,21.90910641697701,22.39363429194782,p,0,0.48215370799880475,None,22.3937474580016,22.398749666986987,23.41831145796459,23.39172116701957,,,,,,,,,,,,,,,,,,,,,510,001,,,2026-03-28_20h56.20.269,encodingtask,,2025.2.4,None,2026-03-28 20h56.20.619229 +0100,
1,5,5,0,stimuli/TESTscenes/JA_1.jpg,Jungle,Negvi,stimuli/items/undersea_object_32.png,Undersea,object,si,stimuli/integrated/jungle_b_undersea_object_32.jpg,p,0,0.2811752090929076,None,,,,0,0,0,0,0,5,5,5,,,,,23.41831145796459,,,,,,,,,,,,,,,,,,,,,,,,23.41382629191503,23.41831145796459,25.397465375019237,25.397493041935377,25.409101541968994,25.409101541968994,25.69326862494927,p,0,0.2811752090929076,None,25.69335295795463,25.697664125007577,26.711644666967914,26.68098674993962,,,,,,,,,,,,,,,,,,,,,510,001,,,2026-03-28_20h56.20.269,encodingtask,,2025.2.4,None,2026-03-28 20h56.20.619229 +0100,
1,6,6,0,stimuli/TESTscenes/JB_1.jpg,Jungle,Tulon,stimuli/items/undersea_animal_39.png,Undersea,animal,si,stimuli/integrated/jungle_a_undersea_animal_39.jpg,p,0,0.29401866695843637,None,,,,0,0,0,0,0,6,6,6,,,,,26.711644666967914,,,,,,,,,,,,,,,,,,,,,,,,26.706581291975453,26.711644666967914,28.6977050419664,28.697744332952425,28.709185499930754,28.709185499930754,29.009399708011188,p,0,0.29401866695843637,None,29.009478457970545,29.01352874992881,30.02856562496163,29.997566457954235,,,,,,,,,,,,,,,,,,,,,510,001,,,2026-03-28_20h56.20.269,encodingtask,,2025.2.4,None,2026-03-28 20h56.20.619229 +0100,
1,7,7,0,stimuli/TESTscenes/JA_1.jpg,Jungle,Negvi,stimuli/items/undersea_object_28.png,Undersea,object,si,stimuli/integrated/jungle_b_undersea_object_28.jpg,p,0,0.369494125014171,None,,,,0,0,0,0,0,7,7,7,,,,,30.02856562496163,,,,,,,,,,,,,,,,,,,,,,,,30.023408417007886,30.02856562496163,32.014353208011016,32.01437862496823,32.02553450001869,32.02553450001869,32.39767741691321,p,0,0.369494125014171,None,32.397757082944736,32.40896645793691,33.422320874989964,33.392337666940875,,,,,,,,,,,,,,,,,,,,,510,001,,,2026-03-28_20h56.20.269,encodingtask,,2025.2.4,None,2026-03-28 20h56.20.619229 +0100,
1,8,8,0,stimuli/TESTscenes/JB_1.jpg,Jungle,Tulon,stimuli/items/jungle_animal_34.png,Jungle,animal,sc,stimuli/integrated/jungle_b_jungle_animal_34.jpg,None,0,,,,,,0,0,0,0,0,8,8,8,,,,,33.422320874989964,,,,,,,,,,,,,,,,,,,,,,,,33.41738024994265,33.422320874989964,35.40910566691309,35.409137666923925,35.41397833300289,35.41397833300289,36.39649704191834,None,0,,,36.3965549999848,36.40849516692106,37.42359929194208,37.39224112499505,36.40849516692106,36.40849516692106,,,,,,,,,,,,,,,,,,,510,001,,,2026-03-28_20h56.20.269,encodingtask,,2025.2.4,None,2026-03-28 20h56.20.619229 +0100,
1,9,9,0,stimuli/TESTscenes/UB_1.jpg,Undersea,Malbow,stimuli/items/jungle_object_29.png,Jungle,object,si,stimuli/integrated/undersea_a_jungle_object_29.jpg,p,0,0.2781688329996541,None,,,,0,0,0,0,0,9,9,9,,,,,37.42359929194208,,,,,,,,,,,,,,,,,,,,,,,,37.418484999914654,37.42359929194208,39.40890033298638,39.4089240829926,39.41443124995567,39.41443124995567,39.69811470794957,p,0,0.2781688329996541,None,39.698178957914934,39.708911666995846,40.72283466695808,40.692218750016764,,,,,,,,,,,,,,,,,,,,,510,001,,,2026-03-28_20h56.20.269,encodingtask,,2025.2.4,None,2026-03-28 20h56.20.619229 +0100,
1,10,10,0,stimuli/TESTscenes/JB_1.jpg,Jungle,Tulon,stimuli/items/jungle_object_16.png,Jungle,object,sc,stimuli/integrated/jungle_b_jungle_object_16.jpg,p,1,0.706619624979794,None,,,,0,0,0,0,0,10,10,10,,,,,40.72283466695808,,,,,,,,,,,,,,,,,,,,,,,,40.717691457946785,40.72283466695808,42.70885208295658,42.708875666954555,42.7125926669687,42.7125926669687,43.426373832975514,p,1,0.706619624979794,None,43.42645062494557,43.43117258301936,44.45125545794144,44.41452679201029,,,,,,,,,,,,,,,,,,,,,510,001,,,2026-03-28_20h56.20.269,encodingtask,,2025.2.4,None,2026-03-28 20h56.20.619229 +0100,
1,11,11,0,stimuli/TESTscenes/UB_1.jpg,Undersea,Malbow,stimuli/items/jungle_animal_5.png,Jungle,animal,si,stimuli/integrated/undersea_a_jungle_animal_5.jpg,p,0,0.1748120830161497,None,,,,0,0,0,0,0,11,11,11,,,,,44.45125545794144,,,,,,,,,,,,,,,,,,,,,,,,44.44599345792085,44.45125545794144,46.4318174169166,46.431871332926676,46.44231441698503,46.44231441698503,46.62693012494128,p,0,0.1748120830161497,None,46.627036541933194,46.63740120793227,47.6638516249368,47.62584066693671,,,,,,,,,,,,,,,,,,,,,510,001,,,2026-03-28_20h56.20.269,encodingtask,,2025.2.4,None,2026-03-28 20h56.20.619229 +0100,
1,12,12,0,stimuli/TESTscenes/UA_1.jpg,Undersea,Somar,stimuli/items/undersea_object_13.png,Undersea,object,sc,stimuli/integrated/undersea_b_undersea_object_13.jpg,p,1,0.9479049999499694,None,,,,0,0,0,0,0,12,12,12,,,,,47.6638516249368,,,,,,,,,,,,,,,,,,,,,,,,47.65870979195461,47.6638516249368,49.63069775002077,49.63072854198981,49.64217187499162,49.64217187499162,50.59304724994581,p,1,0.9479049999499694,None,50.59312733297702,50.596784041961655,51.61452029191423,51.58111079200171,,,,,,,,,,,,,,,,,,,,,510,001,,,2026-03-28_20h56.20.269,encodingtask,,2025.2.4,None,2026-03-28 20h56.20.619229 +0100,
1,13,13,0,stimuli/TESTscenes/UB_1.jpg,Undersea,Malbow,stimuli/items/undersea_animal_10.png,Undersea,animal,sc,stimuli/integrated/undersea_a_undersea_animal_10.jpg,p,1,0.6247791660716757,None,,,,0,0,0,0,0,13,13,13,,,,,51.61452029191423,,,,,,,,,,,,,,,,,,,,,,,,51.60933349991683,51.61452029191423,53.59728887490928,53.5973432919709,53.60914174991194,53.60914174991194,54.243280833004974,p,1,0.6247791660716757,None,54.24343862500973,54.25067383295391,55.27103541698307,55.241833208012395,,,,,,,,,,,,,,,,,,,,,510,001,,,2026-03-28_20h56.20.269,encodingtask,,2025.2.4,None,2026-03-28 20h56.20.619229 +0100,
1,14,14,0,stimuli/TESTscenes/JB_1.jpg,Jungle,Tulon,stimuli/items/undersea_animal_35.png,Undersea,animal,si,stimuli/integrated/jungle_a_undersea_animal_35.jpg,p,0,0.3230242079589516,None,,,,0,0,0,0,0,14,14,14,,,,,55.27103541698307,,,,,,,,,,,,,,,,,,,,,,,,55.2657676669769,55.27103541698307,57.24723208299838,57.24726183293387,57.25874216691591,57.25874216691591,57.59268899995368,p,0,0.3230242079589516,None,57.59276691696141,57.59822487493511,58.61063787492458,58.580986957997084,,,,,,,,,,,,,,,,,,,,,510,001,,,2026-03-28_20h56.20.269,encodingtask,,2025.2.4,None,2026-03-28 20h56.20.619229 +0100,
1,15,15,0,stimuli/TESTscenes/JA_1.jpg,Jungle,Negvi,stimuli/items/undersea_animal_29.png,Undersea,animal,si,stimuli/integrated/jungle_b_undersea_animal_29.jpg,p,0,0.6329775830963627,None,,,,0,0,0,0,0,15,15,15,,,,,58.61063787492458,,,,,,,,,,,,,,,,,,,,,,,,58.605651124962606,58.61063787492458,60.59730495791882,60.59733183297794,60.608766917022876,60.608766917022876,61.24272654193919,p,0,0.6329775830963627,None,61.242803624947555,61.24698258296121,62.2622324579861,62.22998295794241,,,,,,,,,,,,,,,,,,,,,510,001,,,2026-03-28_20h56.20.269,encodingtask,,2025.2.4,None,2026-03-28 20h56.20.619229 +0100,
1,16,16,0,stimuli/TESTscenes/UA_1.jpg,Undersea,Somar,stimuli/items/undersea_object_14.png,Undersea,object,sc,stimuli/integrated/undersea_b_undersea_object_14.jpg,p,1,0.6640136670321226,None,,,,0,0,0,0,0,16,16,16,,,,,62.2622324579861,,,,,,,,,,,,,,,,,,,,,,,,62.257209999952465,62.2622324579861,64.24775791692082,64.24777725001331,64.25869470799807,64.25869470799807,64.92578208295163,p,1,0.6640136670321226,None,64.92586012498941,64.93033770797774,65.95502479199786,65.91514104197267,,,,,,,,,,,,,,,,,,,,,510,001,,,2026-03-28_20h56.20.269,encodingtask,,2025.2.4,None,2026-03-28 20h56.20.619229 +0100,
1,17,17,0,stimuli/TESTscenes/JA_1.jpg,Jungle,Negvi,stimuli/items/jungle_object_19.png,Jungle,object,sc,stimuli/integrated/jungle_b_jungle_object_19.jpg,p,1,0.3266663750400767,None,,,,0,0,0,0,0,17,17,17,,,,,65.95502479199786,,,,,,,,,,,,,,,,,,,,,,,,65.94967333297245,65.95502479199786,67.93092466692906,67.93095033301506,67.94197395793162,67.94197395793162,68.27611608291045,p,1,0.3266663750400767,None,68.27619045798201,68.28211654198822,69.31035049993079,69.27601379191037,,,,,,,,,,,,,,,,,,,,,510,001,,,2026-03-28_20h56.20.269,encodingtask,,2025.2.4,None,2026-03-28 20h56.20.619229 +0100,
1,18,18,0,stimuli/TESTscenes/JB_1.jpg,Jungle,Tulon,stimuli/items/jungle_object_8.png,Jungle,object,sc,stimuli/integrated/jungle_b_jungle_object_8.jpg,p,1,0.7936099170474336,None,,,,0,0,0,0,0,18,18,18,,,,,69.31035049993079,,,,,,,,,,,,,,,,,,,,,,,,69.30522829201072,69.31035049993079,71.28047233296093,71.28050204191823,71.29195008298848,71.29195008298848,72.09263479197398,p,1,0.7936099170474336,None,72.09271254192572,72.0969875419978,73.10908954194747,73.07987466698978,,,,,,,,,,,,,,,,,,,,,510,001,,,2026-03-28_20h56.20.269,encodingtask,,2025.2.4,None,2026-03-28 20h56.20.619229 +0100,
1,19,19,0,stimuli/TESTscenes/UB_1.jpg,Undersea,Malbow,stimuli/items/undersea_animal_1.png,Undersea,animal,sc,stimuli/integrated/undersea_b_undersea_animal_1.jpg,p,1,0.6634087909478694,None,,,,0,0,0,0,0,19,19,19,,,,,73.10908954194747,,,,,,,,,,,,,,,,,,,,,,,,73.10398708295543,73.10908954194747,75.09222808293998,75.09227154194377,75.0970414999174,75.0970414999174,75.76406674995087,p,1,0.6634087909478694,None,75.76414758292958,75.7752999579534,76.79341679194476,76.75888870796189,,,75.0970414999174,,,,,,,,,,,,,,,,,,510,001,,,2026-03-28_20h56.20.269,encodingtask,,2025.2.4,None,2026-03-28 20h56.20.619229 +0100,
1,20,20,0,stimuli/TESTscenes/JB_1.jpg,Jungle,Tulon,stimuli/items/undersea_object_35.png,Undersea,object,si,stimuli/integrated/jungle_b_undersea_object_35.jpg,p,0,0.7932009579380974,None,,,,0,0,0,0,0,20,20,20,,,,,76.79341679194476,,,,,,,,,,,,,,,,,,,,,,,,76.78856554196682,76.79341679194476,78.76431895792484,78.76435033301823,78.77522829198278,78.77522829198278,79.57667566696182,p,0,0.7932009579380974,None,79.57675541692879,79.58034312492236,80.5955089579802,80.56373558298219,,,,,,,,,,,,,,,,,,,,,510,001,,,2026-03-28_20h56.20.269,encodingtask,,2025.2.4,None,2026-03-28 20h56.20.619229 +0100,
1,21,21,0,stimuli/TESTscenes/JA_1.jpg,Jungle,Negvi,stimuli/items/undersea_object_20.png,Undersea,object,si,stimuli/integrated/jungle_b_undersea_object_20.jpg,p,0,0.6053186670178548,None,,,,0,0,0,0,0,21,21,21,,,,,80.5955089579802,,,,,,,,,,,,,,,,,,,,,,,,80.59030437492765,80.5955089579802,82.5801395829767,82.58017054200172,82.59191349998582,82.59191349998582,83.21017070801463,p,0,0.6053186670178548,None,83.21027262497228,83.21794841694646,84.24037449993193,84.20870520791505,,,,,,,,,,,,,,,,,,,,,510,001,,,2026-03-28_20h56.20.269,encodingtask,,2025.2.4,None,2026-03-28 20h56.20.619229 +0100,
1,22,22,0,stimuli/TESTscenes/JB_1.jpg,Jungle,Tulon,stimuli/items/jungle_object_11.png,Jungle,object,sc,stimuli/integrated/jungle_a_jungle_object_11.jpg,p,1,0.6677189170150086,None,,,,0,0,0,0,0,22,22,22,,,,,84.24037449993193,,,,,,,,,,,,,,,,,,,,,,,,84.23526995792054,84.24037449993193,86.2143150420161,86.21436862496193,86.22529124992434,86.22529124992434,86.8995054999832,p,1,0.6677189170150086,None,86.89962224999908,86.91389104200061,87.92860666697379,87.89714133297093,,,,,,,,,,,,,,,,,,,,,510,001,,,2026-03-28_20h56.20.269,encodingtask,,2025.2.4,None,2026-03-28 20h56.20.619229 +0100,
1,23,23,0,stimuli/TESTscenes/JA_1.jpg,Jungle,Negvi,stimuli/items/undersea_object_21.png,Undersea,object,si,stimuli/integrated/jungle_b_undersea_object_21.jpg,p,0,0.26478583400603384,None,,,,0,0,0,0,0,23,23,23,,,,,87.92860666697379,,,,,,,,,,,,,,,,,,,,,,,,87.92349287495017,87.92860666697379,89.90852225001436,89.90855145792011,89.91326695797034,89.91326695797034,90.18072837498039,p,0,0.26478583400603384,None,90.18079437501729,90.19177874992602,91.20583829202224,91.17486508295406,,,,,,,,,,,,,,,,,,,,,510,001,,,2026-03-28_20h56.20.269,encodingtask,,2025.2.4,None,2026-03-28 20h56.20.619229 +0100,
1,24,24,0,stimuli/TESTscenes/JB_1.jpg,Jungle,Tulon,stimuli/items/undersea_animal_31.png,Undersea,animal,si,stimuli/integrated/jungle_b_undersea_animal_31.jpg,p,0,0.5414981669746339,None,,,,0,0,0,0,0,24,24,24,,,,,91.20583829202224,,,,,,,,,,,,,,,,,,,,,,,,91.20065324997995,91.20583829202224,93.19186983292457,93.19189991697203,93.19753779191524,93.19753779191524,93.74289983301423,p,0,0.5414981669746339,None,93.74299279192928,93.74739758297801,94.75835437502246,94.72986791701987,,,,,,,,,,,,,,,,,,,,,510,001,,,2026-03-28_20h56.20.269,encodingtask,,2025.2.4,None,2026-03-28 20h56.20.619229 +0100,
1,25,25,0,stimuli/TESTscenes/UA_1.jpg,Undersea,Somar,stimuli/items/jungle_animal_6.png,Jungle,animal,si,stimuli/integrated/undersea_b_jungle_animal_6.jpg,p,0,0.3364903329638764,None,,,,0,0,0,0,0,25,25,25,,,,,94.75835437502246,,,,,,,,,,,,,,,,,,,,,,,,94.75336749991402,94.75835437502246,96.74186908302363,96.74189816694707,96.74644704197999,96.74644704197999,97.09299745794851,p,0,0.3364903329638764,None,97.09308675001375,97.10054395801853,98.12483420793433,98.09220758301672,,,96.74644704197999,,,,,,,,,,,,,,,,,,510,001,,,2026-03-28_20h56.20.269,encodingtask,,2025.2.4,None,2026-03-28 20h56.20.619229 +0100,
1,26,26,0,stimuli/TESTscenes/JB_1.jpg,Jungle,Tulon,stimuli/items/undersea_object_36.png,Undersea,object,si,stimuli/integrated/jungle_a_undersea_object_36.jpg,p,0,0.9383873749757186,None,,,,0,0,0,0,0,26,26,26,,,,,98.12483420793433,,,,,,,,,,,,,,,,,,,,,,,,98.1196767919464,98.12483420793433,100.09685629198793,100.09688541700598,100.10840316698886,100.10840316698886,101.05918020801619,p,0,0.9383873749757186,None,101.05926274997182,101.06598324992228,102.090783291962,102.05897024995647,,,,,,,,,,,,,,,,,,,,,510,001,,,2026-03-28_20h56.20.269,encodingtask,,2025.2.4,None,2026-03-28 20h56.20.619229 +0100,
1,27,27,0,stimuli/TESTscenes/UB_1.jpg,Undersea,Malbow,stimuli/items/undersea_object_3.png,Undersea,object,sc,stimuli/integrated/undersea_a_undersea_object_3.jpg,None,0,,,,,,0,0,0,0,0,27,27,27,,,,,102.090783291962,,,,,,,,,,,,,,,,,,,,,,,,102.08568637492135,102.090783291962,104.0635917079635,104.06362195801921,104.0750522079179,104.0750522079179,105.0586777079152,None,0,,,105.0587475419743,105.06310420797672,106.07873845798895,106.04682779195718,105.06310420797672,105.06310420797672,,,,,,,,,,,,,,,,,,,510,001,,,2026-03-28_20h56.20.269,encodingtask,,2025.2.4,None,2026-03-28 20h56.20.619229 +0100,
1,28,28,0,stimuli/TESTscenes/JB_1.jpg,Jungle,Tulon,stimuli/items/jungle_animal_26.png,Jungle,animal,sc,stimuli/integrated/jungle_b_jungle_animal_26.jpg,p,1,0.2789390829857439,None,,,,0,0,0,0,0,28,28,28,,,,,106.07873845798895,,,,,,,,,,,,,,,,,,,,,,,,106.07350229192525,106.07873845798895,108.0629372500116,108.06296562496573,108.07505229196977,108.07505229196977,108.35965691693127,p,1,0.2789390829857439,None,108.35975599999074,108.36422195797786,109.39264666696545,109.35891862493008,,,,,,,,,,,,,,,,,,,,,510,001,,,2026-03-28_20h56.20.269,encodingtask,,2025.2.4,None,2026-03-28 20h56.20.619229 +0100,
1,29,29,0,stimuli/TESTscenes/UA_1.jpg,Undersea,Somar,stimuli/items/jungle_animal_15.png,Jungle,animal,si,stimuli/integrated/undersea_a_jungle_animal_15.jpg,None,0,,,,,,0,0,0,0,0,29,29,29,,,,,109.39264666696545,,,,,,,,,,,,,,,,,,,,,,,,109.38752437499352,109.39264666696545,111.36297545791604,111.36301729199477,111.37504304200411,111.37504304200411,112.35880066698883,None,0,,,112.35887379199266,112.3635598749388,113.37710749998223,113.34643954201601,112.3635598749388,112.3635598749388,,,,,,,,,,,,,,,,,,,510,001,,,2026-03-28_20h56.20.269,encodingtask,,2025.2.4,None,2026-03-28 20h56.20.619229 +0100,
1,30,30,0,stimuli/TESTscenes/JB_1.jpg,Jungle,Tulon,stimuli/items/jungle_object_18.png,Jungle,object,sc,stimuli/integrated/jungle_b_jungle_object_18.jpg,None,0,,,,,,0,0,0,0,0,30,30,30,,,,,113.37710749998223,,,,,,,,,,,,,,,,,,,,,,,,113.37186758301686,113.37710749998223,115.36445262492634,115.3645258329343,115.37505349994171,115.37505349994171,116.35879404190928,None,0,,,116.35889799997676,116.36411837500054,117.38621449994389,117.34768933302257,116.36411837500054,116.36411837500054,,,,,,,,,,,,,,,,,,,510,001,,,2026-03-28_20h56.20.269,encodingtask,,2025.2.4,None,2026-03-28 20h56.20.619229 +0100,
1,31,31,0,stimuli/TESTscenes/UA_1.jpg,Undersea,Somar,stimuli/items/jungle_animal_7.png,Jungle,animal,si,stimuli/integrated/undersea_a_jungle_animal_7.jpg,p,0,0.3045097499853,None,,,,0,0,0,0,0,31,31,31,,,,,117.38621449994389,,,,,,,,,,,,,,,,,,,,,,,,117.38097829197068,117.38621449994389,119.36300016695168,119.36304195795674,119.37512562493794,119.37512562493794,119.69241399993189,p,0,0.3045097499853,None,119.69249320798554,119.69827904191334,120.72448687499855,120.69204091699794,,,,,,,,,,,,,,,,,,,,,510,001,,,2026-03-28_20h56.20.269,encodingtask,,2025.2.4,None,2026-03-28 20h56.20.619229 +0100,
1,32,32,0,stimuli/TESTscenes/JA_1.jpg,Jungle,Negvi,stimuli/items/undersea_animal_22.png,Undersea,animal,si,stimuli/integrated/jungle_a_undersea_animal_22.jpg,None,0,,,,,,0,0,0,0,0,32,32,32,,,,,120.72448687499855,,,,,,,,,,,,,,,,,,,,,,,,120.719309624983,120.72448687499855,122.69692575000226,122.69695549993776,122.70822916692123,122.70822916692123,123.69180966692511,None,0,,,123.6918679579394,123.6964832500089,124.70899479195941,124.68089629197493,123.6964832500089,123.6964832500089,,,,,,,,,,,,,,,,,,,510,001,,,2026-03-28_20h56.20.269,encodingtask,,2025.2.4,None,2026-03-28 20h56.20.619229 +0100,
1,33,33,0,stimuli/TESTscenes/UA_1.jpg,Undersea,Somar,stimuli/items/undersea_object_11.png,Undersea,object,sc,stimuli/integrated/undersea_a_undersea_object_11.jpg,None,0,,,,,,0,0,0,0,0,33,33,33,,,,,124.70899479195941,,,,,,,,,,,,,,,,,,,,,,,,124.70376858301461,124.70899479195941,126.6922947919229,126.6923327499535,126.69645624991972,126.69645624991972,127.67965845798608,None,0,,,127.67974145791959,127.69104533293284,128.71936420793645,128.67523041693494,127.69104533293284,127.69104533293284,126.69645624991972,,,,,,,,,,,,,,,,,,510,001,,,2026-03-28_20h56.20.269,encodingtask,,2025.2.4,None,2026-03-28 20h56.20.619229 +0100,
1,34,34,0,stimuli/TESTscenes/JA_1.jpg,Jungle,Negvi,stimuli/items/jungle_object_17.png,Jungle,object,sc,stimuli/integrated/jungle_b_jungle_object_17.jpg,None,0,,,,,,0,0,0,0,0,34,34,34,,,,,128.71936420793645,,,,,,,,,,,,,,,,,,,,,,,,128.71227912500035,128.71936420793645,130.6961243749829,130.696167957969,130.70817920798436,130.70817920798436,131.69195854198188,None,0,,,131.69203470798675,131.69639824994374,132.71453970798757,132.68093074997887,131.69639824994374,131.69639824994374,,,,,,,,,,,,,,,,,,,510,001,,,2026-03-28_20h56.20.269,encodingtask,,2025.2.4,None,2026-03-28 20h56.20.619229 +0100,
1,35,35,0,stimuli/TESTscenes/JB_1.jpg,Jungle,Tulon,stimuli/items/jungle_animal_23.png,Jungle,animal,sc,stimuli/integrated/jungle_a_jungle_animal_23.jpg,p,1,0.4062787500442937,None,,,,0,0,0,0,0,35,35,35,,,,,132.71453970798757,,,,,,,,,,,,,,,,,,,,,,,,132.70923733292148,132.71453970798757,134.69729487493169,134.697333374992,134.708177833003,134.708177833003,135.1254787920043,p,1,0.4062787500442937,None,135.1255456249928,135.13146458298434,136.15726462495513,136.12499874993227,,,,,,,,,,,,,,,,,,,,,510,001,,,2026-03-28_20h56.20.269,encodingtask,,2025.2.4,None,2026-03-28 20h56.20.619229 +0100,
1,36,36,0,stimuli/TESTscenes/UA_1.jpg,Undersea,Somar,stimuli/items/undersea_animal_16.png,Undersea,animal,sc,stimuli/integrated/undersea_a_undersea_animal_16.jpg,None,0,,,,,,0,0,0,0,0,36,36,36,,,,,136.15726462495513,,,,,,,,,,,,,,,,,,,,,,,,136.15217704197858,136.15726462495513,138.12944045790937,138.12947862502187,138.14107395801693,138.14107395801693,139.12446345796343,None,0,,,139.12453287502285,139.12939949997235,140.1433880829718,140.11251399992034,139.12939949997235,139.12939949997235,,,,,,,,,,,,,,,,,,,510,001,,,2026-03-28_20h56.20.269,encodingtask,,2025.2.4,None,2026-03-28 20h56.20.619229 +0100,
1,37,37,0,stimuli/TESTscenes/JB_1.jpg,Jungle,Tulon,stimuli/items/undersea_object_24.png,Undersea,object,si,stimuli/integrated/jungle_a_undersea_object_24.jpg,None,0,,,,,,0,0,0,0,0,37,37,37,,,,,140.1433880829718,,,,,,,,,,,,,,,,,,,,,,,,140.13807341700885,140.1433880829718,142.1299889999209,142.1300129579613,142.14144929195754,142.14144929195754,143.12441816693172,None,0,,,143.12448529200628,143.12907854199875,144.145401375019,144.11323020793498,143.12907854199875,143.12907854199875,,,,,,,,,,,,,,,,,,,510,001,,,2026-03-28_20h56.20.269,encodingtask,,2025.2.4,None,2026-03-28 20h56.20.619229 +0100,
1,38,38,0,stimuli/TESTscenes/JA_1.jpg,Jungle,Negvi,stimuli/items/undersea_object_22.png,Undersea,object,si,stimuli/integrated/jungle_a_undersea_object_22.jpg,p,0,0.5091384999686852,None,,,,0,0,0,0,0,38,38,38,,,,,144.145401375019,,,,,,,,,,,,,,,,,,,,,,,,144.14034766692203,144.145401375019,146.13029004191048,146.13037049991544,146.14156670798548,146.14156670798548,146.65951204195153,p,0,0.5091384999686852,None,146.65963399992324,146.6665070420131,147.6965749579249,147.6587099999888,,,,,,,,,,,,,,,,,,,,,510,001,,,2026-03-28_20h56.20.269,encodingtask,,2025.2.4,None,2026-03-28 20h56.20.619229 +0100,
1,39,39,0,stimuli/TESTscenes/UB_1.jpg,Undersea,Malbow,stimuli/items/undersea_object_9.png,Undersea,object,sc,stimuli/integrated/undersea_a_undersea_object_9.jpg,None,0,,,,,,0,0,0,0,0,39,39,39,,,,,147.6965749579249,,,,,,,,,,,,,,,,,,,,,,,,147.69087041693274,147.6965749579249,149.66385925002396,149.66391858295538,149.67489020794164,149.67489020794164,150.65852916694712,None,0,,,150.65861704200506,150.66312183300033,151.68671791697852,151.6466993750073,150.66312183300033,150.66312183300033,,,,,,,,,,,,,,,,,,,510,001,,,2026-03-28_20h56.20.269,encodingtask,,2025.2.4,None,2026-03-28 20h56.20.619229 +0100,
1,40,40,0,stimuli/TESTscenes/JA_1.jpg,Jungle,Negvi,stimuli/items/undersea_animal_36.png,Undersea,animal,si,stimuli/integrated/jungle_a_undersea_animal_36.jpg,p,0,0.43844395806081593,None,,,,0,0,0,0,0,40,40,40,,,,,151.68671791697852,,,,,,,,,,,,,,,,,,,,,,,,151.68142633291427,151.68671791697852,153.66365345800295,153.66371462494135,153.6749609579565,153.6749609579565,154.11491812497843,p,0,0.43844395806081593,None,154.11501449998468,154.14189920795616,,155.12512654194143,,,,,,,,,,,,,,,,,,,,,510,001,,,2026-03-28_20h56.20.269,encodingtask,,2025.2.4,None,2026-03-28 20h56.20.619229 +0100,
1,41,41,0,stimuli/TESTscenes/UB_1.jpg,Undersea,Malbow,stimuli/items/undersea_animal_9.png,Undersea,animal,sc,stimuli/integrated/undersea_b_undersea_animal_9.jpg,p,1,0.32483683293685317,None,,,,0,0,0,0,0,41,41,41,,,,,155.16225741698872,,,,,,,,,,,,,,,,,,,,,,,,155.1571455829544,155.16225741698872,157.12488937494345,157.1249274169095,157.12860645796172,157.12860645796172,157.45945399999619,p,1,0.32483683293685317,None,157.45956679200754,157.46437095792498,158.48528970801271,158.4482015420217,,,,,,,,,,,,,,,,,,,,,510,001,,,2026-03-28_20h56.20.269,encodingtask,,2025.2.4,None,2026-03-28 20h56.20.619229 +0100,
1,42,42,0,stimuli/TESTscenes/UA_1.jpg,Undersea,Somar,stimuli/items/undersea_object_4.png,Undersea,object,sc,stimuli/integrated/undersea_b_undersea_object_4.jpg,p,1,0.49601095798425376,None,,,,0,0,0,0,0,42,42,42,,,,,158.48528970801271,,,,,,,,,,,,,,,,,,,,,,,,158.47999749996234,158.48528970801271,160.47548983292654,160.47556529194117,160.480228374945,160.480228374945,160.98046095797326,p,1,0.49601095798425376,None,160.9805383749772,160.99060358293355,162.01082304201555,161.97473566699773,,,,,,,,,,,,,,,,,,,,,510,001,,,2026-03-28_20h56.20.269,encodingtask,,2025.2.4,None,2026-03-28 20h56.20.619229 +0100,
1,43,43,0,stimuli/TESTscenes/JB_1.jpg,Jungle,Tulon,stimuli/items/jungle_animal_37.png,Jungle,animal,sc,stimuli/integrated/jungle_b_jungle_animal_37.jpg,None,0,,,,,,0,0,0,0,0,43,43,43,,,,,162.01082304201555,,,,,,,,,,,,,,,,,,,,,,,,162.00540508294944,162.01082304201555,163.99175520800054,163.9918032499263,163.9965738329338,163.9965738329338,164.98014070792124,None,0,,,164.98021274991333,164.99154670792632,166.00801216694526,165.9746602079831,164.99154670792632,164.99154670792632,,,,,,,,,,,,,,,,,,,510,001,,,2026-03-28_20h56.20.269,encodingtask,,2025.2.4,None,2026-03-28 20h56.20.619229 +0100,
1,44,44,0,stimuli/TESTscenes/UB_1.jpg,Undersea,Malbow,stimuli/items/jungle_animal_8.png,Jungle,animal,si,stimuli/integrated/undersea_a_jungle_animal_8.jpg,None,0,,,,,,0,0,0,0,0,44,44,44,,,,,166.00801216694526,,,,,,,,,,,,,,,,,,,,,,,,166.0027463749284,166.00801216694526,167.99136633297894,167.99139866698533,167.99524183291942,167.99524183291942,168.97979449993,None,0,,,168.97984570800327,168.99118720798288,170.02973737497814,169.97543124994263,168.99118720798288,168.99118720798288,,,,,,,,,,,,,,,,,,,510,001,,,2026-03-28_20h56.20.269,encodingtask,,2025.2.4,None,2026-03-28 20h56.20.619229 +0100,
1,45,45,0,stimuli/TESTscenes/JB_1.jpg,Jungle,Tulon,stimuli/items/jungle_animal_40.png,Jungle,animal,sc,stimuli/integrated/jungle_a_jungle_animal_40.jpg,None,0,,,,,,0,0,0,0,0,45,45,45,,,,,170.02973737497814,,,,,,,,,,,,,,,,,,,,,,,,170.02418449998368,170.02973737497814,171.9920968329534,171.99217329197563,171.99684466701,171.99684466701,172.9794104999164,None,0,,,172.97952358296607,172.99146212497726,174.01031641697045,173.97413158300333,172.99146212497726,172.99146212497726,,,,,,,,,,,,,,,,,,,510,001,,,2026-03-28_20h56.20.269,encodingtask,,2025.2.4,None,2026-03-28 20h56.20.619229 +0100,
1,46,46,0,stimuli/TESTscenes/JA_1.jpg,Jungle,Negvi,stimuli/items/jungle_animal_30.png,Jungle,animal,sc,stimuli/integrated/jungle_a_jungle_animal_30.jpg,None,0,,,,,,0,0,0,0,0,46,46,46,,,,,174.01031641697045,,,,,,,,,,,,,,,,,,,,,,,,174.00522608298343,174.01031641697045,175.99201391695533,175.99205633299425,175.9962221669266,175.9962221669266,176.97978345793672,None,0,,,176.9798472499242,176.99138595792465,178.01508220797405,177.97526683297474,176.99138595792465,176.99138595792465,,,,,,,,,,,,,,,,,,,510,001,,,2026-03-28_20h56.20.269,encodingtask,,2025.2.4,None,2026-03-28 20h56.20.619229 +0100,
1,47,47,0,stimuli/TESTscenes/UB_1.jpg,Undersea,Malbow,stimuli/items/undersea_object_2.png,Undersea,object,sc,stimuli/integrated/undersea_b_undersea_object_2.jpg,None,0,,,,,,0,0,0,0,0,47,47,47,,,,,178.01508220797405,,,,,,,,,,,,,,,,,,,,,,,,178.00970329192933,178.01508220797405,179.99152883293573,179.9915846249787,179.99685054190923,179.99685054190923,180.98059858300257,None,0,,,180.98067924997304,180.99140666692983,182.0151773749385,181.97505083295982,180.99140666692983,180.99140666692983,,,,,,,,,,,,,,,,,,,510,001,,,2026-03-28_20h56.20.269,encodingtask,,2025.2.4,None,2026-03-28 20h56.20.619229 +0100,
1,48,48,0,stimuli/TESTscenes/JA_1.jpg,Jungle,Negvi,stimuli/items/jungle_animal_32.png,Jungle,animal,sc,stimuli/integrated/jungle_a_jungle_animal_32.jpg,None,0,,,,,,0,0,0,0,0,48,48,48,,,,,182.0151773749385,,,,,,,,,,,,,,,,,,,,,,,,182.00991762499325,182.0151773749385,183.991414124961,183.9914602499921,183.9960586669622,183.9960586669622,184.9798414579127,None,0,,,184.97990704199765,184.99106320797,186.01646820793394,185.97480283293407,184.99106320797,184.99106320797,,,,,,,,,,,,,,,,,,,510,001,,,2026-03-28_20h56.20.269,encodingtask,,2025.2.4,None,2026-03-28 20h56.20.619229 +0100,
1,49,49,0,stimuli/TESTscenes/UA_1.jpg,Undersea,Somar,stimuli/items/jungle_animal_13.png,Jungle,animal,si,stimuli/integrated/undersea_a_jungle_animal_13.jpg,None,0,,,,,,0,0,0,0,0,49,49,49,,,,,186.01646820793394,,,,,,,,,,,,,,,,,,,,,,,,186.01114691700786,186.01646820793394,187.99134366691578,187.9913780830102,187.99525037501007,187.99525037501007,188.97943558299448,None,0,,,188.97950220794883,188.99120137491263,190.01176987495273,189.9747542499099,188.99120137491263,188.99120137491263,,,,,,,,,,,,,,,,,,,510,001,,,2026-03-28_20h56.20.269,encodingtask,,2025.2.4,None,2026-03-28 20h56.20.619229 +0100,
1,50,50,0,stimuli/TESTscenes/JB_1.jpg,Jungle,Tulon,stimuli/items/undersea_object_39.png,Undersea,object,si,stimuli/integrated/jungle_b_undersea_object_39.jpg,None,0,,,,,,0,0,0,0,0,50,50,50,,,,,190.01176987495273,,,,,,,,,,,,,,,,,,,,,,,,190.00637700001244,190.01176987495273,191.99137674993835,191.99142387497704,191.99628737499006,191.99628737499006,192.97981124999933,None,0,,,192.9798893330153,192.9912256669486,194.01303795794956,193.97492116701324,192.9912256669486,192.9912256669486,,,,,,,,,,,,,,,,,,,510,001,,,2026-03-28_20h56.20.269,encodingtask,,2025.2.4,None,2026-03-28 20h56.20.619229 +0100,
1,51,51,0,stimuli/TESTscenes/UB_1.jpg,Undersea,Malbow,stimuli/items/jungle_animal_17.png,Jungle,animal,si,stimuli/integrated/undersea_a_jungle_animal_17.jpg,None,0,,,,,,0,0,0,0,0,51,51,51,,,,,194.01303795794956,,,,,,,,,,,,,,,,,,,,,,,,194.00778312492184,194.01303795794956,195.98130374995526,195.9814129169099,195.99112249992322,195.99112249992322,196.97480954194907,None,0,,,196.97498287493363,196.97925562493037,198.0010960829677,197.9622837919742,196.97925562493037,196.97925562493037,,,,,,,,,,,,,,,,,,,510,001,,,2026-03-28_20h56.20.269,encodingtask,,2025.2.4,None,2026-03-28 20h56.20.619229 +0100,
1,52,52,0,stimuli/TESTscenes/JA_1.jpg,Jungle,Negvi,stimuli/items/jungle_object_5.png,Jungle,object,sc,stimuli/integrated/jungle_b_jungle_object_5.jpg,None,0,,,,,,0,0,0,0,0,52,52,52,,,,,198.0010960829677,,,,,,,,,,,,,,,,,,,,,,,,197.99565712502226,198.0010960829677,199.99112829193473,199.99117912491783,199.99525179201737,199.99525179201737,200.98018887499347,None,0,,,200.98031095799524,200.99118524999358,202.02119608293287,201.97495145793073,200.99118524999358,200.99118524999358,,,,,,,,,,,,,,,,,,,510,001,,,2026-03-28_20h56.20.269,encodingtask,,2025.2.4,None,2026-03-28 20h56.20.619229 +0100,
1,53,53,0,stimuli/TESTscenes/UB_1.jpg,Undersea,Malbow,stimuli/items/undersea_object_18.png,Undersea,object,sc,stimuli/integrated/undersea_a_undersea_object_18.jpg,None,0,,,,,,0,0,0,0,0,53,53,53,,,,,202.02119608293287,,,,,,,,,,,,,,,,,,,,,,,,202.01535083295312,202.02119608293287,203.9806516249664,203.9807192919543,203.99028770800214,203.99028770800214,204.97454824997112,None,0,,,204.97461816691794,204.97912720800377,206.00942549994215,205.96259274997283,204.97912720800377,204.97912720800377,,,,,,,,,,,,,,,,,,,510,001,,,2026-03-28_20h56.20.269,encodingtask,,2025.2.4,None,2026-03-28 20h56.20.619229 +0100,
1,54,54,0,stimuli/TESTscenes/UA_1.jpg,Undersea,Somar,stimuli/items/jungle_object_30.png,Jungle,object,si,stimuli/integrated/undersea_a_jungle_object_30.jpg,None,0,,,,,,0,0,0,0,0,54,54,54,,,,,206.00942549994215,,,,,,,,,,,,,,,,,,,,,,,,206.00411637499928,206.00942549994215,207.99105887499172,207.991105999914,207.9959877919173,207.9959877919173,208.97961499996018,None,0,,,208.9796926670242,208.9911120829638,210.01927258295473,209.97484645794611,208.9911120829638,208.9911120829638,,,,,,,,,,,,,,,,,,,510,001,,,2026-03-28_20h56.20.269,encodingtask,,2025.2.4,None,2026-03-28 20h56.20.619229 +0100,
1,55,55,0,stimuli/TESTscenes/UB_1.jpg,Undersea,Malbow,stimuli/items/jungle_animal_14.png,Jungle,animal,si,stimuli/integrated/undersea_a_jungle_animal_14.jpg,None,0,,,,,,0,0,0,0,0,55,55,55,,,,,210.01927258295473,,,,,,,,,,,,,,,,,,,,,,,,210.01370424998458,210.01927258295473,211.99147883302066,211.9915177919902,211.99570404191036,211.99570404191036,212.97887079196516,None,0,,,212.97898666700348,212.99060195800848,214.0167277919827,213.97483833297156,212.99060195800848,212.99060195800848,,,,,,,,,,,,,,,,,,,510,001,,,2026-03-28_20h56.20.269,encodingtask,,2025.2.4,None,2026-03-28 20h56.20.619229 +0100,
1,56,56,0,stimuli/TESTscenes/UA_1.jpg,Undersea,Somar,stimuli/items/undersea_animal_15.png,Undersea,animal,sc,stimuli/integrated/undersea_a_undersea_animal_15.jpg,None,0,,,,,,0,0,0,0,0,56,56,56,,,,,214.0167277919827,,,,,,,,,,,,,,,,,,,,,,,,214.0114132919116,214.0167277919827,215.99150299991015,215.99160220799968,215.9968594579259,215.9968594579259,216.980029291939,None,0,,,216.9801739579998,216.99144495790824,218.02343912492506,217.9746904169442,216.99144495790824,216.99144495790824,,,,,,,,,,,,,,,,,,,510,001,,,2026-03-28_20h56.20.269,encodingtask,,2025.2.4,None,2026-03-28 20h56.20.619229 +0100,
1,57,57,0,stimuli/TESTscenes/UB_1.jpg,Undersea,Malbow,stimuli/items/jungle_animal_18.png,Jungle,animal,si,stimuli/integrated/undersea_a_jungle_animal_18.jpg,None,0,,,,,,0,0,0,0,0,57,57,57,,,,,218.02343912492506,,,,,,,,,,,,,,,,,,,,,,,,218.01809383300133,218.02343912492506,219.99136312492192,219.99140554200858,219.99540512496606,219.99540512496606,220.9791320830118,None,0,,,220.97920883295592,220.99137483292725,222.01860762492288,221.97474420792423,220.99137483292725,220.99137483292725,,,,,,,,,,,,,,,,,,,510,001,,,2026-03-28_20h56.20.269,encodingtask,,2025.2.4,None,2026-03-28 20h56.20.619229 +0100,
1,58,58,0,stimuli/TESTscenes/UA_1.jpg,Undersea,Somar,stimuli/items/jungle_object_28.png,Jungle,object,si,stimuli/integrated/undersea_b_jungle_object_28.jpg,None,0,,,,,,0,0,0,0,0,58,58,58,,,,,222.01860762492288,,,,,,,,,,,,,,,,,,,,,,,,222.01344424998388,222.01860762492288,223.9914290419547,223.99147591693327,223.99528058292344,223.99528058292344,224.9797809999436,None,0,,,224.97986695799045,224.99100016697776,226.01852574991062,225.97473699995317,224.99100016697776,224.99100016697776,,,,,,,,,,,,,,,,,,,510,001,,,2026-03-28_20h56.20.269,encodingtask,,2025.2.4,None,2026-03-28 20h56.20.619229 +0100,
1,59,59,0,stimuli/TESTscenes/UB_1.jpg,Undersea,Malbow,stimuli/items/jungle_object_26.png,Jungle,object,si,stimuli/integrated/undersea_b_jungle_object_26.jpg,None,0,,,,,,0,0,0,0,0,59,59,59,,,,,226.01852574991062,,,,,,,,,,,,,,,,,,,,,,,,226.01323208294343,226.01852574991062,227.99096245795954,227.99100016697776,227.9947740000207,227.9947740000207,228.97845199995209,None,0,,,228.97854137502145,228.99094279191922,230.01423320791218,229.9746418329887,228.99094279191922,228.99094279191922,,,,,,,,,,,,,,,,,,,510,001,,,2026-03-28_20h56.20.269,encodingtask,,2025.2.4,None,2026-03-28 20h56.20.619229 +0100,
1,60,60,0,stimuli/TESTscenes/UA_1.jpg,Undersea,Somar,stimuli/items/undersea_animal_20.png,Undersea,animal,sc,stimuli/integrated/undersea_b_undersea_animal_20.jpg,None,0,,,,,,0,0,0,0,0,60,60,60,,,,,230.01423320791218,,,,,,,,,,,,,,,,,,,,,,,,230.0088739580242,230.01423320791218,231.99106870801188,231.9911154169822,231.99579495796934,231.99579495796934,232.97892620798666,None,0,,,232.97898879193235,232.99092070793267,234.00405966700055,233.97363316698465,232.99092070793267,232.99092070793267,,,,,,,,,,,,,,,,,,,510,001,,,2026-03-28_20h56.20.269,encodingtask,,2025.2.4,None,2026-03-28 20h56.20.619229 +0100,
1,61,61,0,stimuli/TESTscenes/UB_1.jpg,Undersea,Malbow,stimuli/items/jungle_object_24.png,Jungle,object,si,stimuli/integrated/undersea_a_jungle_object_24.jpg,None,0,,,,,,0,0,0,0,0,61,61,61,,,,,234.00405966700055,,,,,,,,,,,,,,,,,,,,,,,,233.9991828330094,234.00405966700055,235.99108720791992,235.99112899997272,235.99512720794883,235.99512720794883,236.97768849995919,None,0,,,236.97777300002053,236.99093691702,238.0122128749499,237.97464866691735,236.99093691702,236.99093691702,,,,,,,,,,,,,,,,,,,510,001,,,2026-03-28_20h56.20.269,encodingtask,,2025.2.4,None,2026-03-28 20h56.20.619229 +0100,
1,62,62,0,stimuli/TESTscenes/JA_1.jpg,Jungle,Negvi,stimuli/items/jungle_animal_29.png,Jungle,animal,sc,stimuli/integrated/jungle_a_jungle_animal_29.jpg,None,0,,,,,,0,0,0,0,0,62,62,62,,,,,238.0122128749499,,,,,,,,,,,,,,,,,,,,,,,,238.00693837495055,238.0122128749499,239.99087391700596,239.99095458292868,239.9958458750043,239.9958458750043,240.99122662493028,None,0,,,240.99134412501007,240.99616787501145,242.02457916701678,241.97933191701304,,,,,,,,,,,,,,,,,,,,,510,001,,,2026-03-28_20h56.20.269,encodingtask,,2025.2.4,None,2026-03-28 20h56.20.619229 +0100,
1,63,63,0,stimuli/TESTscenes/UB_1.jpg,Undersea,Malbow,stimuli/items/jungle_object_39.png,Jungle,object,si,stimuli/integrated/undersea_a_jungle_object_39.jpg,None,0,,,,,,0,0,0,0,0,63,63,63,,,,,242.02457916701678,,,,,,,,,,,,,,,,,,,,,,,,242.01933233300224,242.02457916701678,243.99109237501398,243.99113879201468,243.9954431669321,243.9954431669321,244.97893445799127,None,0,,,244.9790024169488,244.99073854193557,246.0154324999312,245.9748560829321,244.99073854193557,244.99073854193557,,,,,,,,,,,,,,,,,,,510,001,,,2026-03-28_20h56.20.269,encodingtask,,2025.2.4,None,2026-03-28 20h56.20.619229 +0100,
1,64,64,0,stimuli/TESTscenes/JA_1.jpg,Jungle,Negvi,stimuli/items/undersea_animal_33.png,Undersea,animal,si,stimuli/integrated/jungle_b_undersea_animal_33.jpg,None,0,,,,,,0,0,0,0,0,64,64,64,,,,,246.0154324999312,,,,,,,,,,,,,,,,,,,,,,,,246.01009029196575,246.0154324999312,247.99121004191693,247.99125841702335,247.9962424170226,247.9962424170226,248.99104200000875,None,0,,,248.9911224169191,248.9951960829785,250.01970337494276,249.9791207499802,,,,,,,,,,,,,,,,,,,,,510,001,,,2026-03-28_20h56.20.269,encodingtask,,2025.2.4,None,2026-03-28 20h56.20.619229 +0100,
1,65,65,0,stimuli/TESTscenes/UB_1.jpg,Undersea,Malbow,stimuli/items/undersea_animal_8.png,Undersea,animal,sc,stimuli/integrated/undersea_a_undersea_animal_8.jpg,None,0,,,,,,0,0,0,0,0,65,65,65,,,,,250.01970337494276,,,,,,,,,,,,,,,,,,,,,,,,250.01449233293533,250.01970337494276,251.99106366699561,251.9911047499627,251.99527604191098,251.99527604191098,252.97920887498185,None,0,,,252.97926866693888,252.9903487919364,254.01695595798083,253.97424549993593,252.9903487919364,252.9903487919364,,,,,,,,,,,,,,,,,,,510,001,,,2026-03-28_20h56.20.269,encodingtask,,2025.2.4,None,2026-03-28 20h56.20.619229 +0100,
1,66,66,0,stimuli/TESTscenes/JA_1.jpg,Jungle,Negvi,stimuli/items/jungle_animal_41.png,Jungle,animal,sc,stimuli/integrated/jungle_b_jungle_animal_41.jpg,None,0,,,,,,0,0,0,0,0,66,66,66,,,,,254.01695595798083,,,,,,,,,,,,,,,,,,,,,,,,254.01144312496763,254.01695595798083,255.9900015000021,255.99005233298521,255.99558233295102,255.99558233295102,256.9791262919316,None,0,,,256.97916970797814,256.98992587497924,257.9995769999223,257.97328729194123,256.98992587497924,256.98992587497924,,,,,,,,,,,,,,,,,,,510,001,,,2026-03-28_20h56.20.269,encodingtask,,2025.2.4,None,2026-03-28 20h56.20.619229 +0100,
1,67,67,0,stimuli/TESTscenes/UA_1.jpg,Undersea,Somar,stimuli/items/jungle_object_22.png,Jungle,object,si,stimuli/integrated/undersea_b_jungle_object_22.jpg,None,0,,,,,,0,0,0,0,0,67,67,67,,,,,257.9995769999223,,,,,,,,,,,,,,,,,,,,,,,,257.9949391669361,257.9995769999223,259.98970366700087,259.9897262919694,259.9959251669934,259.9959251669934,260.97912349994294,None,0,,,260.97924991697073,260.99074770801235,262.0156552499393,261.97457424993627,260.99074770801235,260.99074770801235,,,,,,,,,,,,,,,,,,,510,001,,,2026-03-28_20h56.20.269,encodingtask,,2025.2.4,None,2026-03-28 20h56.20.619229 +0100,
1,68,68,0,stimuli/TESTscenes/JA_1.jpg,Jungle,Negvi,stimuli/items/jungle_object_4.png,Jungle,object,sc,stimuli/integrated/jungle_b_jungle_object_4.jpg,None,0,,,,,,0,0,0,0,0,68,68,68,,,,,262.0156552499393,,,,,,,,,,,,,,,,,,,,,,,,262.0101465829648,262.0156552499393,263.99092620797455,263.99100795795675,263.99589395790827,263.99589395790827,264.97889883292373,None,0,,,264.9790031249868,264.9906929169083,266.0141149170231,265.97412337490823,264.9906929169083,264.9906929169083,,,,,,,,,,,,,,,,,,,510,001,,,2026-03-28_20h56.20.269,encodingtask,,2025.2.4,None,2026-03-28 20h56.20.619229 +0100,
1,69,69,0,stimuli/TESTscenes/UA_1.jpg,Undersea,Somar,stimuli/items/jungle_object_34.png,Jungle,object,si,stimuli/integrated/undersea_a_jungle_object_34.jpg,None,0,,,,,,0,0,0,0,0,69,69,69,,,,,266.0141149170231,,,,,,,,,,,,,,,,,,,,,,,,266.008785916958,266.0141149170231,267.9909614579519,267.99100866692606,267.9959680419415,267.9959680419415,268.9909924999811,None,0,,,268.9910745000234,268.99551149993204,270.0153350000037,269.9788982499158,,,,,,,,,,,,,,,,,,,,,510,001,,,2026-03-28_20h56.20.269,encodingtask,,2025.2.4,None,2026-03-28 20h56.20.619229 +0100,
1,70,70,0,stimuli/TESTscenes/JA_1.jpg,Jungle,Negvi,stimuli/items/jungle_object_20.png,Jungle,object,sc,stimuli/integrated/jungle_a_jungle_object_20.jpg,None,0,,,,,,0,0,0,0,0,70,70,70,,,,,270.0153350000037,,,,,,,,,,,,,,,,,,,,,,,,270.0100137919653,270.0153350000037,271.9909301250009,271.9909779999871,271.9952806249494,271.9952806249494,272.97837516700383,None,0,,,272.9784602499567,272.9905980830081,274.0134186249925,273.97417491697706,272.9905980830081,272.9905980830081,,,,,,,,,,,,,,,,,,,510,001,,,2026-03-28_20h56.20.269,encodingtask,,2025.2.4,None,2026-03-28 20h56.20.619229 +0100,
1,71,71,0,stimuli/TESTscenes/UA_1.jpg,Undersea,Somar,stimuli/items/undersea_object_17.png,Undersea,object,sc,stimuli/integrated/undersea_b_undersea_object_17.jpg,None,0,,,,,,0,0,0,0,0,71,71,71,,,,,274.0134186249925,,,,,,,,,,,,,,,,,,,,,,,,274.0078894579783,274.0134186249925,275.990982791991,275.99103162495885,275.995381042012,275.995381042012,276.978668708005,None,0,,,276.9787432079902,276.9910041249823,278.0222463749815,277.97465879202355,276.9910041249823,276.9910041249823,,,,,,,,,,,,,,,,,,,510,001,,,2026-03-28_20h56.20.269,encodingtask,,2025.2.4,None,2026-03-28 20h56.20.619229 +0100,
1,72,72,0,stimuli/TESTscenes/JB_1.jpg,Jungle,Tulon,stimuli/items/jungle_object_14.png,Jungle,object,sc,stimuli/integrated/jungle_a_jungle_object_14.jpg,None,0,,,,,,0,0,0,0,0,72,72,72,,,,,278.0222463749815,,,,,,,,,,,,,,,,,,,,,,,,278.0165262079099,278.0222463749815,279.9830704999622,279.9833169169724,279.9902647079434,279.9902647079434,280.97459687502123,None,0,,,280.9748066669563,280.98099629196804,282.01631824998185,281.974415167002,280.98099629196804,280.98099629196804,,,,,,,,,,,,,,,,,,,510,001,,,2026-03-28_20h56.20.269,encodingtask,,2025.2.4,None,2026-03-28 20h56.20.619229 +0100,
1,73,73,0,stimuli/TESTscenes/UA_1.jpg,Undersea,Somar,stimuli/items/undersea_animal_11.png,Undersea,animal,sc,stimuli/integrated/undersea_b_undersea_animal_11.jpg,None,0,,,,,,0,0,0,0,0,73,73,73,,,,,282.01631824998185,,,,,,,,,,,,,,,,,,,,,,,,282.01078804198187,282.01631824998185,283.99084908294026,283.990883499966,283.994813874946,283.994813874946,284.9781419169158,None,0,,,284.97823229199275,284.9908888329519,286.0132571249269,285.97429024998564,284.9908888329519,284.9908888329519,,,,,,,,,,,,,,,,,,,510,001,,,2026-03-28_20h56.20.269,encodingtask,,2025.2.4,None,2026-03-28 20h56.20.619229 +0100,
1,74,74,0,stimuli/TESTscenes/JA_1.jpg,Jungle,Negvi,stimuli/items/undersea_animal_27.png,Undersea,animal,si,stimuli/integrated/jungle_a_undersea_animal_27.jpg,None,0,,,,,,0,0,0,0,0,74,74,74,,,,,286.0132571249269,,,,,,,,,,,,,,,,,,,,,,,,286.0078749579843,286.0132571249269,287.99067462491803,287.99072087497916,287.9952039999189,287.9952039999189,288.9785598749295,None,0,,,288.9786249999888,288.99086429202,290.01749216695316,289.9744974579662,288.99086429202,288.99086429202,,,,,,,,,,,,,,,,,,,510,001,,,2026-03-28_20h56.20.269,encodingtask,,2025.2.4,None,2026-03-28 20h56.20.619229 +0100,
1,75,75,0,stimuli/TESTscenes/UA_1.jpg,Undersea,Somar,stimuli/items/jungle_object_33.png,Jungle,object,si,stimuli/integrated/undersea_b_jungle_object_33.jpg,None,0,,,,,,0,0,0,0,0,75,75,75,,,,,290.01749216695316,,,,,,,,,,,,,,,,,,,,,,,,290.01198274991475,290.01749216695316,291.99072670796886,291.9907746670069,291.995625832933,291.995625832933,292.97850445797667,None,0,,,292.9785772919422,292.9906352920225,294.0083567079855,293.97316829196643,292.9906352920225,292.9906352920225,,,,,,,,,,,,,,,,,,,510,001,,,2026-03-28_20h56.20.269,encodingtask,,2025.2.4,None,2026-03-28 20h56.20.619229 +0100,
1,76,76,0,stimuli/TESTscenes/JA_1.jpg,Jungle,Negvi,stimuli/items/jungle_animal_35.png,Jungle,animal,sc,stimuli/integrated/jungle_a_jungle_animal_35.jpg,None,0,,,,,,0,0,0,0,0,76,76,76,,,,,294.0083567079855,,,,,,,,,,,,,,,,,,,,,,,,294.0034034999553,294.0083567079855,295.99083062494174,295.99087974999566,295.995497582946,295.995497582946,296.97876074991655,None,0,,,296.9788522499148,296.99050800001714,298.01419316697866,297.9739854169311,296.99050800001714,296.99050800001714,,,,,,,,,,,,,,,,,,,510,001,,,2026-03-28_20h56.20.269,encodingtask,,2025.2.4,None,2026-03-28 20h56.20.619229 +0100,
1,77,77,0,stimuli/TESTscenes/JB_1.jpg,Jungle,Tulon,stimuli/items/undersea_animal_26.png,Undersea,animal,si,stimuli/integrated/jungle_b_undersea_animal_26.jpg,None,0,,,,,,0,0,0,0,0,77,77,77,,,,,298.01419316697866,,,,,,,,,,,,,,,,,,,,,,,,298.00889783294406,298.01419316697866,299.9905100419419,299.9905793329235,299.99536745797377,299.99536745797377,300.9781729999231,None,0,,,300.97826424997766,300.990270457929,302.01508387492504,301.9739535829285,300.990270457929,300.990270457929,,,,,,,,,,,,,,,,,,,510,001,,,2026-03-28_20h56.20.269,encodingtask,,2025.2.4,None,2026-03-28 20h56.20.619229 +0100,
1,78,78,0,stimuli/TESTscenes/UA_1.jpg,Undersea,Somar,stimuli/items/undersea_animal_3.png,Undersea,animal,sc,stimuli/integrated/undersea_a_undersea_animal_3.jpg,None,0,,,,,,0,0,0,0,0,78,78,78,,,,,302.01508387492504,,,,,,,,,,,,,,,,,,,,,,,,302.0098687079735,302.01508387492504,303.99057299993,303.990622250014,303.9953440829413,303.9953440829413,304.97887970798183,None,0,,,304.97896099998616,304.99040258291643,306.0150779170217,305.9741372499848,304.99040258291643,304.99040258291643,,,,,,,,,,,,,,,,,,,510,001,,,2026-03-28_20h56.20.269,encodingtask,,2025.2.4,None,2026-03-28 20h56.20.619229 +0100,
1,79,79,0,stimuli/TESTscenes/UB_1.jpg,Undersea,Malbow,stimuli/items/jungle_object_41.png,Jungle,object,si,stimuli/integrated/undersea_a_jungle_object_41.jpg,None,0,,,,,,0,0,0,0,0,79,79,79,,,,,306.0150779170217,,,,,,,,,,,,,,,,,,,,,,,,306.00987970794085,306.0150779170217,307.99039241694845,307.99042820802424,307.9942405829206,307.9942405829206,308.9784326249501,None,0,,,308.9785045000026,308.99055250000674,,310.18408383300994,308.99055250000674,308.99055250000674,,,,,,,,,,,,,,,,,,,510,001,,,2026-03-28_20h56.20.269,encodingtask,,2025.2.4,None,2026-03-28 20h56.20.619229 +0100,
1,0,0,0,,,,,,,,,,,,,space,14.356469082995318,None,0,0,0,0,,,,,0,0,0,0,310.2830258329632,,,,,,,,,,,,,,,,,,,,,,,,,,,,,,,,,,,,,,,,,,310.2132947499631,310.2136149579892,310.27116508292966,310.2830258329632,310.2830258329632,310.2830258329632,324.6944258749718,space,14.356469082995318,None,,,,,,,,510,001,,,2026-03-28_20h56.20.269,encodingtask,,2025.2.4,None,2026-03-28 20h56.20.619229 +0100,
1,0,0,0,,,,,,,,,,,,,,,,0,0,0,0,,,,,,,,,,,,,,,,,,,,,,,,,,,,,,,,,,,,,,,,,,,,,,,,,,,,,,,,,,,,,,,,,,,,510,001,,,2026-03-28_20h56.20.269,encodingtask,,2025.2.4,None,2026-03-28 20h56.20.619229 +0100,
2,0,0,0,stimuli/TESTscenes/UB_1.jpg,Undersea,Malbow,stimuli/items/undersea_object_12.png,Undersea,object,sc,stimuli/integrated/undersea_b_undersea_object_12.jpg,None,0,,,,,,0,1,1,1,0,0,0,0,,,,,324.9066726670135,,,,,,,,,,,,,,,,,,,,,,324.69651312497444,324.6965539170196,324.77654987492133,324.9066726670135,326.7068674999755,326.70693754195236,326.71242879191414,326.71242879191414,327.6954164169729,None,0,,,327.6954921249999,327.70685704192147,328.73430212493986,328.6905660419725,327.70685704192147,327.70685704192147,,,,,,,,,,,,,,,,,,,510,001,,,2026-03-28_20h56.20.269,encodingtask,,2025.2.4,None,2026-03-28 20h56.20.619229 +0100,
2,1,1,0,stimuli/TESTscenes/UA_1.jpg,Undersea,Somar,stimuli/items/jungle_animal_12.png,Jungle,animal,si,stimuli/integrated/undersea_b_jungle_animal_12.jpg,None,0,,,,,,0,1,1,1,0,1,1,1,,,,,328.73430212493986,,,,,,,,,,,,,,,,,,,,,,,,328.72899562492967,328.73430212493986,330.70710916700773,330.7071759579703,330.71232512500137,330.71232512500137,331.7069121670211,None,0,,,331.70702533295844,331.7115942079108,332.7416525830049,332.6954944579629,,,,,,,,,,,,,,,,,,,,,510,001,,,2026-03-28_20h56.20.269,encodingtask,,2025.2.4,None,2026-03-28 20h56.20.619229 +0100,
2,2,2,0,stimuli/TESTscenes/JB_1.jpg,Jungle,Tulon,stimuli/items/undersea_animal_24.png,Undersea,animal,si,stimuli/integrated/jungle_b_undersea_animal_24.jpg,None,0,,,,,,0,1,1,1,0,2,2,2,,,,,332.7416525830049,,,,,,,,,,,,,,,,,,,,,,,,332.73629683291074,332.7416525830049,334.70694187493064,334.7069913749583,334.712069583009,334.712069583009,335.706827832968,None,0,,,335.7069097919157,335.7116847499274,336.7391900829971,336.6953477499774,,,,,,,,,,,,,,,,,,,,,510,001,,,2026-03-28_20h56.20.269,encodingtask,,2025.2.4,None,2026-03-28 20h56.20.619229 +0100,
2,3,3,0,stimuli/TESTscenes/UB_1.jpg,Undersea,Malbow,stimuli/items/undersea_animal_18.png,Undersea,animal,sc,stimuli/integrated/undersea_b_undersea_animal_18.jpg,None,0,,,,,,0,1,1,1,0,3,3,3,,,,,336.7391900829971,,,,,,,,,,,,,,,,,,,,,,,,336.7338514169678,336.7391900829971,338.7068890419323,338.7069377079606,338.71196233294904,338.71196233294904,339.69515445793513,None,0,,,339.6952169169672,339.7067702499917,340.7339837079635,340.69049266690854,339.7067702499917,339.7067702499917,,,,,,,,,,,,,,,,,,,510,001,,,2026-03-28_20h56.20.269,encodingtask,,2025.2.4,None,2026-03-28 20h56.20.619229 +0100,
2,4,4,0,stimuli/TESTscenes/JB_1.jpg,Jungle,Tulon,stimuli/items/undersea_object_23.png,Undersea,object,si,stimuli/integrated/jungle_b_undersea_object_23.jpg,None,0,,,,,,0,1,1,1,0,4,4,4,,,,,340.7339837079635,,,,,,,,,,,,,,,,,,,,,,,,340.7286762499716,340.7339837079635,342.7068293329794,342.7068784169387,342.7114918329753,342.7114918329753,343.6969915829832,None,0,,,343.69708458299283,343.7060462079244,344.7296650829958,344.69035199994687,,,,,,,,,,,,,,,,,,,,,510,001,,,2026-03-28_20h56.20.269,encodingtask,,2025.2.4,None,2026-03-28 20h56.20.619229 +0100,
2,5,5,0,stimuli/TESTscenes/JA_1.jpg,Jungle,Negvi,stimuli/items/undersea_object_32.png,Undersea,object,si,stimuli/integrated/jungle_b_undersea_object_32.jpg,None,0,,,,,,0,1,1,1,0,5,5,5,,,,,344.7296650829958,,,,,,,,,,,,,,,,,,,,,,,,344.72382158297114,344.7296650829958,346.7069307080237,346.7069752080133,346.7111723750131,346.7111723750131,347.69505337497685,None,0,,,347.6951141669415,347.7067033749772,348.72772037493996,348.6905259579653,347.7067033749772,347.7067033749772,,,,,,,,,,,,,,,,,,,510,001,,,2026-03-28_20h56.20.269,encodingtask,,2025.2.4,None,2026-03-28 20h56.20.619229 +0100,
2,6,6,0,stimuli/TESTscenes/JB_1.jpg,Jungle,Tulon,stimuli/items/undersea_animal_39.png,Undersea,animal,si,stimuli/integrated/jungle_a_undersea_animal_39.jpg,None,0,,,,,,0,1,1,1,0,6,6,6,,,,,348.72772037493996,,,,,,,,,,,,,,,,,,,,,,,,348.7223875420168,348.72772037493996,350.7068639169447,350.70690437499434,350.71073204197455,350.71073204197455,351.70701274997555,None,0,,,351.7070975829847,351.7110306249233,352.7323730419157,352.69410629197955,,,,,,,,,,,,,,,,,,,,,510,001,,,2026-03-28_20h56.20.269,encodingtask,,2025.2.4,None,2026-03-28 20h56.20.619229 +0100,
2,7,7,0,stimuli/TESTscenes/JA_1.jpg,Jungle,Negvi,stimuli/items/undersea_object_28.png,Undersea,object,si,stimuli/integrated/jungle_b_undersea_object_28.jpg,None,0,,,,,,0,1,1,1,0,7,7,7,,,,,352.7323730419157,,,,,,,,,,,,,,,,,,,,,,,,352.72699187498074,352.7323730419157,354.70685291697737,354.7070204579504,354.7114337920211,354.7114337920211,355.6949035829166,None,0,,,355.6951032920042,355.70679562492296,356.7351448329864,356.69010087498464,355.70679562492296,355.70679562492296,,,,,,,,,,,,,,,,,,,510,001,,,2026-03-28_20h56.20.269,encodingtask,,2025.2.4,None,2026-03-28 20h56.20.619229 +0100,
2,8,8,0,stimuli/TESTscenes/JB_1.jpg,Jungle,Tulon,stimuli/items/jungle_animal_34.png,Jungle,animal,sc,stimuli/integrated/jungle_b_jungle_animal_34.jpg,None,0,,,,,,0,1,1,1,0,8,8,8,,,,,356.7351448329864,,,,,,,,,,,,,,,,,,,,,,,,356.72974408301525,356.7351448329864,358.7068412079243,358.70688750001136,358.71158408292104,358.71158408292104,359.6946617079666,None,0,,,359.6947239169385,359.70660666702315,360.73150087497197,360.69031787500717,359.70660666702315,359.70660666702315,,,,,,,,,,,,,,,,,,,510,001,,,2026-03-28_20h56.20.269,encodingtask,,2025.2.4,None,2026-03-28 20h56.20.619229 +0100,
2,9,9,0,stimuli/TESTscenes/UB_1.jpg,Undersea,Malbow,stimuli/items/jungle_object_29.png,Jungle,object,si,stimuli/integrated/undersea_a_jungle_object_29.jpg,None,0,,,,,,0,1,1,1,0,9,9,9,,,,,360.73150087497197,,,,,,,,,,,,,,,,,,,,,,,,360.7260986670153,360.73150087497197,362.70687012490816,362.7069098749198,362.71063758293167,362.71063758293167,363.69456949993037,None,0,,,363.6946469579125,363.7065971669508,364.7296858750051,364.6894999999786,363.7065971669508,363.7065971669508,,,,,,,,,,,,,,,,,,,510,001,,,2026-03-28_20h56.20.269,encodingtask,,2025.2.4,None,2026-03-28 20h56.20.619229 +0100,
2,10,10,0,stimuli/TESTscenes/JB_1.jpg,Jungle,Tulon,stimuli/items/jungle_object_16.png,Jungle,object,sc,stimuli/integrated/jungle_b_jungle_object_16.jpg,None,0,,,,,,0,1,1,1,0,10,10,10,,,,,364.7296858750051,,,,,,,,,,,,,,,,,,,,,,,,364.7242627500091,364.7296858750051,366.7067113749217,366.7068450419465,366.7145426669158,366.7145426669158,367.69841208297294,None,0,,,367.6987624579342,367.7054099579109,368.734695125022,368.69031374994665,,,,,,,,,,,,,,,,,,,,,510,001,,,2026-03-28_20h56.20.269,encodingtask,,2025.2.4,None,2026-03-28 20h56.20.619229 +0100,
2,11,11,0,stimuli/TESTscenes/UB_1.jpg,Undersea,Malbow,stimuli/items/jungle_animal_5.png,Jungle,animal,si,stimuli/integrated/undersea_a_jungle_animal_5.jpg,None,0,,,,,,0,1,1,1,0,11,11,11,,,,,368.734695125022,,,,,,,,,,,,,,,,,,,,,,,,368.7292614579201,368.734695125022,370.70674504199997,370.70680087502114,370.7111727920128,370.7111727920128,371.69514404202346,None,0,,,371.6952026669169,371.70672299992293,372.7190409169998,372.6896855829982,371.70672299992293,371.70672299992293,,,,,,,,,,,,,,,,,,,510,001,,,2026-03-28_20h56.20.269,encodingtask,,2025.2.4,None,2026-03-28 20h56.20.619229 +0100,
2,12,12,0,stimuli/TESTscenes/UA_1.jpg,Undersea,Somar,stimuli/items/undersea_object_13.png,Undersea,object,sc,stimuli/integrated/undersea_b_undersea_object_13.jpg,None,0,,,,,,0,1,1,1,0,12,12,12,,,,,372.7190409169998,,,,,,,,,,,,,,,,,,,,,,,,372.7138578329468,372.7190409169998,374.70673849992454,374.7067852920154,374.7113989579957,374.7113989579957,375.6952901670011,None,0,,,375.69537141697947,375.70668270799797,376.7283995419275,376.69025400001556,375.70668270799797,375.70668270799797,,,,,,,,,,,,,,,,,,,510,001,,,2026-03-28_20h56.20.269,encodingtask,,2025.2.4,None,2026-03-28 20h56.20.619229 +0100,
2,13,13,0,stimuli/TESTscenes/UB_1.jpg,Undersea,Malbow,stimuli/items/undersea_animal_10.png,Undersea,animal,sc,stimuli/integrated/undersea_a_undersea_animal_10.jpg,None,0,,,,,,0,1,1,1,0,13,13,13,,,,,376.7283995419275,,,,,,,,,,,,,,,,,,,,,,,,376.7229684999911,376.7283995419275,378.70677237492055,378.7068140829215,378.7110453749774,378.7110453749774,379.693705416983,None,0,,,379.69378679199144,379.70659600000363,380.73114741698373,380.68999212491326,379.70659600000363,379.70659600000363,,,,,,,,,,,,,,,,,,,510,001,,,2026-03-28_20h56.20.269,encodingtask,,2025.2.4,None,2026-03-28 20h56.20.619229 +0100,
2,14,14,0,stimuli/TESTscenes/JB_1.jpg,Jungle,Tulon,stimuli/items/undersea_animal_35.png,Undersea,animal,si,stimuli/integrated/jungle_a_undersea_animal_35.jpg,None,0,,,,,,0,1,1,1,0,14,14,14,,,,,380.73114741698373,,,,,,,,,,,,,,,,,,,,,,,,380.72584949992597,380.73114741698373,382.7066493749153,382.70669720799197,382.7109394170111,382.7109394170111,383.6950283750193,None,0,,,383.69508649990894,383.7067103749141,384.72801708301995,384.6902156670112,383.7067103749141,383.7067103749141,,,,,,,,,,,,,,,,,,,510,001,,,2026-03-28_20h56.20.269,encodingtask,,2025.2.4,None,2026-03-28 20h56.20.619229 +0100,
2,15,15,0,stimuli/TESTscenes/JA_1.jpg,Jungle,Negvi,stimuli/items/undersea_animal_29.png,Undersea,animal,si,stimuli/integrated/jungle_b_undersea_animal_29.jpg,None,0,,,,,,0,1,1,1,0,15,15,15,,,,,384.72801708301995,,,,,,,,,,,,,,,,,,,,,,,,384.72278141696006,384.72801708301995,386.70665508299135,386.70670874998905,386.71122774994,386.71122774994,387.6948263749946,None,0,,,387.69489904202055,387.70642191695515,388.72853437496815,388.6901402500225,387.70642191695515,387.70642191695515,,,,,,,,,,,,,,,,,,,510,001,,,2026-03-28_20h56.20.269,encodingtask,,2025.2.4,None,2026-03-28 20h56.20.619229 +0100,
2,16,16,0,stimuli/TESTscenes/UA_1.jpg,Undersea,Somar,stimuli/items/undersea_object_14.png,Undersea,object,sc,stimuli/integrated/undersea_b_undersea_object_14.jpg,None,0,,,,,,0,1,1,1,0,16,16,16,,,,,388.72853437496815,,,,,,,,,,,,,,,,,,,,,,,,388.72319516690914,388.72853437496815,390.70679083291907,390.7068624169333,390.71222333295736,390.71222333295736,391.69515616691206,None,0,,,391.69521908299066,391.706323832972,392.7304779579863,392.68991108296905,391.706323832972,391.706323832972,,,,,,,,,,,,,,,,,,,510,001,,,2026-03-28_20h56.20.269,encodingtask,,2025.2.4,None,2026-03-28 20h56.20.619229 +0100,
2,17,17,0,stimuli/TESTscenes/JA_1.jpg,Jungle,Negvi,stimuli/items/jungle_object_19.png,Jungle,object,sc,stimuli/integrated/jungle_b_jungle_object_19.jpg,None,0,,,,,,0,1,1,1,0,17,17,17,,,,,392.7304779579863,,,,,,,,,,,,,,,,,,,,,,,,392.72515583294444,392.7304779579863,394.7065825830214,394.7066818330204,394.71067112497985,394.71067112497985,395.6937676250236,None,0,,,395.6938958329847,395.7065635420149,396.73461312497966,396.6898412499577,395.7065635420149,395.7065635420149,,,,,,,,,,,,,,,,,,,510,001,,,2026-03-28_20h56.20.269,encodingtask,,2025.2.4,None,2026-03-28 20h56.20.619229 +0100,
2,18,18,0,stimuli/TESTscenes/JB_1.jpg,Jungle,Tulon,stimuli/items/jungle_object_8.png,Jungle,object,sc,stimuli/integrated/jungle_b_jungle_object_8.jpg,None,0,,,,,,0,1,1,1,0,18,18,18,,,,,396.73461312497966,,,,,,,,,,,,,,,,,,,,,,,,396.72909408295527,396.73461312497966,398.70625799999107,398.7063321250025,398.71051679202355,398.71051679202355,399.6983270000201,None,0,,,399.69839154195506,399.7063192919595,400.7367907499429,400.6898990420159,,,,,,,,,,,,,,,,,,,,,510,001,,,2026-03-28_20h56.20.269,encodingtask,,2025.2.4,None,2026-03-28 20h56.20.619229 +0100,
2,19,19,0,stimuli/TESTscenes/UB_1.jpg,Undersea,Malbow,stimuli/items/undersea_animal_1.png,Undersea,animal,sc,stimuli/integrated/undersea_b_undersea_animal_1.jpg,None,0,,,,,,0,1,1,1,0,19,19,19,,,,,400.7367907499429,,,,,,,,,,,,,,,,,,,,,,,,400.7314433749998,400.7367907499429,402.70651845796965,402.7065518749878,402.7104789169971,402.7104789169971,403.6954152499093,None,0,,,403.6955212500179,403.706323124934,404.7301998749608,404.6898690829985,403.706323124934,403.706323124934,,,,,,,,,,,,,,,,,,,510,001,,,2026-03-28_20h56.20.269,encodingtask,,2025.2.4,None,2026-03-28 20h56.20.619229 +0100,
2,20,20,0,stimuli/TESTscenes/JB_1.jpg,Jungle,Tulon,stimuli/items/undersea_object_35.png,Undersea,object,si,stimuli/integrated/jungle_b_undersea_object_35.jpg,None,0,,,,,,0,1,1,1,0,20,20,20,,,,,404.7301998749608,,,,,,,,,,,,,,,,,,,,,,,,404.7250430419808,404.7301998749608,406.70647999993525,406.7065253329929,406.711122083012,406.711122083012,407.69440045801457,None,0,,,407.6944598329719,407.70627149997745,408.7292764169397,408.6900502919452,407.70627149997745,407.70627149997745,,,,,,,,,,,,,,,,,,,510,001,,,2026-03-28_20h56.20.269,encodingtask,,2025.2.4,None,2026-03-28 20h56.20.619229 +0100,
2,21,21,0,stimuli/TESTscenes/JA_1.jpg,Jungle,Negvi,stimuli/items/undersea_object_20.png,Undersea,object,si,stimuli/integrated/jungle_b_undersea_object_20.jpg,None,0,,,,,,0,1,1,1,0,21,21,21,,,,,408.7292764169397,,,,,,,,,,,,,,,,,,,,,,,,408.72384820797015,408.7292764169397,410.706454457948,410.70649883302394,410.71096258296166,410.71096258296166,411.69439074990805,None,0,,,411.6944610829232,411.7061495829839,412.7279563329648,412.68995458295103,411.7061495829839,411.7061495829839,,,,,,,,,,,,,,,,,,,510,001,,,2026-03-28_20h56.20.269,encodingtask,,2025.2.4,None,2026-03-28 20h56.20.619229 +0100,
2,22,22,0,stimuli/TESTscenes/JB_1.jpg,Jungle,Tulon,stimuli/items/jungle_object_11.png,Jungle,object,sc,stimuli/integrated/jungle_a_jungle_object_11.jpg,None,0,,,,,,0,1,1,1,0,22,22,22,,,,,412.7279563329648,,,,,,,,,,,,,,,,,,,,,,,,412.72271012491547,412.7279563329648,414.70667316694744,414.7068442499731,414.71241220796946,414.71241220796946,415.7063059579814,None,0,,,415.70657112495974,415.7112538329093,416.73788329202216,416.6942088329233,,,,,,,,,,,,,,,,,,,,,510,001,,,2026-03-28_20h56.20.269,encodingtask,,2025.2.4,None,2026-03-28 20h56.20.619229 +0100,
2,23,23,0,stimuli/TESTscenes/JA_1.jpg,Jungle,Negvi,stimuli/items/undersea_object_21.png,Undersea,object,si,stimuli/integrated/jungle_b_undersea_object_21.jpg,None,0,,,,,,0,1,1,1,0,23,23,23,,,,,416.73788329202216,,,,,,,,,,,,,,,,,,,,,,,,416.73190737492405,416.73788329202216,418.70656049996614,418.7066099169897,418.71174808300566,418.71174808300566,419.6949912079144,None,0,,,419.6950647919439,419.7061949579511,420.7293527079746,420.68987870798446,419.7061949579511,419.7061949579511,,,,,,,,,,,,,,,,,,,510,001,,,2026-03-28_20h56.20.269,encodingtask,,2025.2.4,None,2026-03-28 20h56.20.619229 +0100,
2,24,24,0,stimuli/TESTscenes/JB_1.jpg,Jungle,Tulon,stimuli/items/undersea_animal_31.png,Undersea,animal,si,stimuli/integrated/jungle_b_undersea_animal_31.jpg,None,0,,,,,,0,1,1,1,0,24,24,24,,,,,420.7293527079746,,,,,,,,,,,,,,,,,,,,,,,,420.7239614999853,420.7293527079746,422.7063459579367,422.7063923329115,422.7108600829961,422.7108600829961,423.69367800001055,None,0,,,423.6937571669696,423.7061294999439,424.73076824995223,424.6896732079331,423.7061294999439,423.7061294999439,,,,,,,,,,,,,,,,,,,510,001,,,2026-03-28_20h56.20.269,encodingtask,,2025.2.4,None,2026-03-28 20h56.20.619229 +0100,
2,25,25,0,stimuli/TESTscenes/UA_1.jpg,Undersea,Somar,stimuli/items/jungle_animal_6.png,Jungle,animal,si,stimuli/integrated/undersea_b_jungle_animal_6.jpg,None,0,,,,,,0,1,1,1,0,25,25,25,,,,,424.73076824995223,,,,,,,,,,,,,,,,,,,,,,,,424.72550429194234,424.73076824995223,426.70633704192005,426.70638516696636,426.7112112919567,426.7112112919567,427.7062309170142,None,0,,,427.7063114999328,427.71136808302253,428.73384912498295,428.69468816695735,,,,,,,,,,,,,,,,,,,,,510,001,,,2026-03-28_20h56.20.269,encodingtask,,2025.2.4,None,2026-03-28 20h56.20.619229 +0100,
2,26,26,0,stimuli/TESTscenes/JB_1.jpg,Jungle,Tulon,stimuli/items/undersea_object_36.png,Undersea,object,si,stimuli/integrated/jungle_a_undersea_object_36.jpg,None,0,,,,,,0,1,1,1,0,26,26,26,,,,,428.73384912498295,,,,,,,,,,,,,,,,,,,,,,,,428.72854845796246,428.73384912498295,430.7063568329904,430.7063976249192,430.7101021669805,430.7101021669805,431.6945791669423,None,0,,,431.6946515419986,431.70609637501184,432.73070395796094,432.6898279169109,431.70609637501184,431.70609637501184,,,,,,,,,,,,,,,,,,,510,001,,,2026-03-28_20h56.20.269,encodingtask,,2025.2.4,None,2026-03-28 20h56.20.619229 +0100,
2,27,27,0,stimuli/TESTscenes/UB_1.jpg,Undersea,Malbow,stimuli/items/undersea_object_3.png,Undersea,object,sc,stimuli/integrated/undersea_a_undersea_object_3.jpg,None,0,,,,,,0,1,1,1,0,27,27,27,,,,,432.73070395796094,,,,,,,,,,,,,,,,,,,,,,,,432.7252572919242,432.73070395796094,434.7060909169959,434.7061373749748,434.71052641700953,434.71052641700953,435.6942159999162,None,0,,,435.6942798329983,435.7061644999776,436.7256163749844,436.68950204201974,435.7061644999776,435.7061644999776,,,,,,,,,,,,,,,,,,,510,001,,,2026-03-28_20h56.20.269,encodingtask,,2025.2.4,None,2026-03-28 20h56.20.619229 +0100,
2,28,28,0,stimuli/TESTscenes/JB_1.jpg,Jungle,Tulon,stimuli/items/jungle_animal_26.png,Jungle,animal,sc,stimuli/integrated/jungle_b_jungle_animal_26.jpg,None,0,,,,,,0,1,1,1,0,28,28,28,,,,,436.7256163749844,,,,,,,,,,,,,,,,,,,,,,,,436.72017791692633,436.7256163749844,438.70619066699874,438.7062367500039,438.71076712501235,438.71076712501235,439.7068820829736,None,0,,,439.70695420796983,439.72287666692864,,440.70609741692897,,,,,,,,,,,,,,,,,,,,,510,001,,,2026-03-28_20h56.20.269,encodingtask,,2025.2.4,None,2026-03-28 20h56.20.619229 +0100,
2,29,29,0,stimuli/TESTscenes/UA_1.jpg,Undersea,Somar,stimuli/items/jungle_animal_15.png,Jungle,animal,si,stimuli/integrated/undersea_a_jungle_animal_15.jpg,None,0,,,,,,0,1,1,1,0,29,29,29,,,,,440.7424961249344,,,,,,,,,,,,,,,,,,,,,,,,440.73715395794716,440.7424961249344,442.7062300000107,442.7062769579934,442.71102566691115,442.71102566691115,443.6941719169263,None,0,,,443.6942319169175,443.70598924998194,444.7979782919865,444.69607104198076,443.70598924998194,443.70598924998194,,,,,,,,,,,,,,,,,,,510,001,,,2026-03-28_20h56.20.269,encodingtask,,2025.2.4,None,2026-03-28 20h56.20.619229 +0100,
2,30,30,0,stimuli/TESTscenes/JB_1.jpg,Jungle,Tulon,stimuli/items/jungle_object_18.png,Jungle,object,sc,stimuli/integrated/jungle_b_jungle_object_18.jpg,None,0,,,,,,0,1,1,1,0,30,30,30,,,,,444.7979782919865,,,,,,,,,,,,,,,,,,,,,,,,444.7907979999436,444.7979782919865,446.70625554199796,446.706338457996,446.7114639999345,446.7114639999345,447.6944298329763,None,0,,,447.69458150002174,447.7060063329991,448.7306825419655,448.6896622920176,447.7060063329991,447.7060063329991,,,,,,,,,,,,,,,,,,,510,001,,,2026-03-28_20h56.20.269,encodingtask,,2025.2.4,None,2026-03-28 20h56.20.619229 +0100,
2,31,31,0,stimuli/TESTscenes/UA_1.jpg,Undersea,Somar,stimuli/items/jungle_animal_7.png,Jungle,animal,si,stimuli/integrated/undersea_a_jungle_animal_7.jpg,None,0,,,,,,0,1,1,1,0,31,31,31,,,,,448.7306825419655,,,,,,,,,,,,,,,,,,,,,,,,448.7252641249215,448.7306825419655,450.70596774993464,450.706013332936,450.71064837498125,450.71064837498125,451.6942976670107,None,0,,,451.69436658301856,451.7058748329291,452.731139792013,452.6894686250016,451.7058748329291,451.7058748329291,,,,,,,,,,,,,,,,,,,510,001,,,2026-03-28_20h56.20.269,encodingtask,,2025.2.4,None,2026-03-28 20h56.20.619229 +0100,
2,32,32,0,stimuli/TESTscenes/JA_1.jpg,Jungle,Negvi,stimuli/items/undersea_animal_22.png,Undersea,animal,si,stimuli/integrated/jungle_a_undersea_animal_22.jpg,None,0,,,,,,0,1,1,1,0,32,32,32,,,,,452.731139792013,,,,,,,,,,,,,,,,,,,,,,,,452.72582724993117,452.731139792013,454.70610895799473,454.70615612494294,454.71069674997125,454.71069674997125,455.69339120795485,None,0,,,455.69344512501266,455.7054422919173,456.7312622499885,456.689448249992,455.7054422919173,455.7054422919173,,,,,,,,,,,,,,,,,,,510,001,,,2026-03-28_20h56.20.269,encodingtask,,2025.2.4,None,2026-03-28 20h56.20.619229 +0100,
2,33,33,0,stimuli/TESTscenes/UA_1.jpg,Undersea,Somar,stimuli/items/undersea_object_11.png,Undersea,object,sc,stimuli/integrated/undersea_a_undersea_object_11.jpg,None,0,,,,,,0,1,1,1,0,33,33,33,,,,,456.7312622499885,,,,,,,,,,,,,,,,,,,,,,,,456.7260376670165,456.7312622499885,458.7060566669097,458.7061033749487,458.71144474996254,458.71144474996254,459.69403591693845,None,0,,,459.69409399991855,459.7058976669796,460.7277083329391,460.68934737495147,459.7058976669796,459.7058976669796,,,,,,,,,,,,,,,,,,,510,001,,,2026-03-28_20h56.20.269,encodingtask,,2025.2.4,None,2026-03-28 20h56.20.619229 +0100,
2,34,34,0,stimuli/TESTscenes/JA_1.jpg,Jungle,Negvi,stimuli/items/jungle_object_17.png,Jungle,object,sc,stimuli/integrated/jungle_b_jungle_object_17.jpg,None,0,,,,,,0,1,1,1,0,34,34,34,,,,,460.7277083329391,,,,,,,,,,,,,,,,,,,,,,,,460.72246654191986,460.7277083329391,462.7061231249245,462.7061643329216,462.71011633297894,462.71011633297894,463.69332958292216,None,0,,,463.6934113749303,463.70585866691545,464.72833533294033,464.6895332079148,463.70585866691545,463.70585866691545,,,,,,,,,,,,,,,,,,,510,001,,,2026-03-28_20h56.20.269,encodingtask,,2025.2.4,None,2026-03-28 20h56.20.619229 +0100,
2,35,35,0,stimuli/TESTscenes/JB_1.jpg,Jungle,Tulon,stimuli/items/jungle_animal_23.png,Jungle,animal,sc,stimuli/integrated/jungle_a_jungle_animal_23.jpg,None,0,,,,,,0,1,1,1,0,35,35,35,,,,,464.72833533294033,,,,,,,,,,,,,,,,,,,,,,,,464.72324216691777,464.72833533294033,466.7060361249605,466.70608479192015,466.71022729191463,466.71022729191463,467.69436895800754,None,0,,,467.69442629197147,467.70585099991877,468.72766645799857,468.68934395792894,467.70585099991877,467.70585099991877,,,,,,,,,,,,,,,,,,,510,001,,,2026-03-28_20h56.20.269,encodingtask,,2025.2.4,None,2026-03-28 20h56.20.619229 +0100,
2,36,36,0,stimuli/TESTscenes/UA_1.jpg,Undersea,Somar,stimuli/items/undersea_animal_16.png,Undersea,animal,sc,stimuli/integrated/undersea_a_undersea_animal_16.jpg,None,0,,,,,,0,1,1,1,0,36,36,36,,,,,468.72766645799857,,,,,,,,,,,,,,,,,,,,,,,,468.7222708329791,468.72766645799857,470.70610166701954,470.70615612494294,470.7107411669567,470.7107411669567,471.6939603749197,None,0,,,471.6940210419707,471.7057320829481,472.72793479193933,472.689547499991,471.7057320829481,471.7057320829481,,,,,,,,,,,,,,,,,,,510,001,,,2026-03-28_20h56.20.269,encodingtask,,2025.2.4,None,2026-03-28 20h56.20.619229 +0100,
2,37,37,0,stimuli/TESTscenes/JB_1.jpg,Jungle,Tulon,stimuli/items/undersea_object_24.png,Undersea,object,si,stimuli/integrated/jungle_a_undersea_object_24.jpg,None,0,,,,,,0,1,1,1,0,37,37,37,,,,,472.72793479193933,,,,,,,,,,,,,,,,,,,,,,,,472.7226011250168,472.72793479193933,474.7060967920115,474.70613937499,474.7104371669702,474.7104371669702,475.6941507499432,None,0,,,475.69421054201666,475.7057905419497,476.729472582927,476.6895670419326,475.7057905419497,475.7057905419497,,,,,,,,,,,,,,,,,,,510,001,,,2026-03-28_20h56.20.269,encodingtask,,2025.2.4,None,2026-03-28 20h56.20.619229 +0100,
2,38,38,0,stimuli/TESTscenes/JA_1.jpg,Jungle,Negvi,stimuli/items/undersea_object_22.png,Undersea,object,si,stimuli/integrated/jungle_a_undersea_object_22.jpg,None,0,,,,,,0,1,1,1,0,38,38,38,,,,,476.729472582927,,,,,,,,,,,,,,,,,,,,,,,,476.72435099992435,476.729472582927,478.7057753750123,478.70581733295694,478.7101094579557,478.7101094579557,479.6945161250187,None,0,,,479.69459487497807,479.7057630829513,480.72644899995066,480.6891722079599,479.7057630829513,479.7057630829513,,,,,,,,,,,,,,,,,,,510,001,,,2026-03-28_20h56.20.269,encodingtask,,2025.2.4,None,2026-03-28 20h56.20.619229 +0100,
2,39,39,0,stimuli/TESTscenes/UB_1.jpg,Undersea,Malbow,stimuli/items/undersea_object_9.png,Undersea,object,sc,stimuli/integrated/undersea_a_undersea_object_9.jpg,None,0,,,,,,0,1,1,1,0,39,39,39,,,,,480.72644899995066,,,,,,,,,,,,,,,,,,,,,,,,480.72107391699683,480.72644899995066,482.7057305419585,482.70577691693325,482.71006820793264,482.71006820793264,483.6930063329637,None,0,,,483.69308862497564,483.70562720799353,484.72940674994607,484.6891439999454,483.70562720799353,483.70562720799353,,,,,,,,,,,,,,,,,,,510,001,,,2026-03-28_20h56.20.269,encodingtask,,2025.2.4,None,2026-03-28 20h56.20.619229 +0100,
2,40,40,0,stimuli/TESTscenes/JA_1.jpg,Jungle,Negvi,stimuli/items/undersea_animal_36.png,Undersea,animal,si,stimuli/integrated/jungle_a_undersea_animal_36.jpg,None,0,,,,,,0,1,1,1,0,40,40,40,,,,,484.72940674994607,,,,,,,,,,,,,,,,,,,,,,,,484.7240402919706,484.72940674994607,486.7055685420055,486.7056153329322,486.70926866692025,486.70926866692025,487.6941664170008,None,0,,,487.6942422919674,487.7056929169921,488.72611466702074,488.68901195796207,487.7056929169921,487.7056929169921,,,,,,,,,,,,,,,,,,,510,001,,,2026-03-28_20h56.20.269,encodingtask,,2025.2.4,None,2026-03-28 20h56.20.619229 +0100,
2,41,41,0,stimuli/TESTscenes/UB_1.jpg,Undersea,Malbow,stimuli/items/undersea_animal_9.png,Undersea,animal,sc,stimuli/integrated/undersea_b_undersea_animal_9.jpg,None,0,,,,,,0,1,1,1,0,41,41,41,,,,,488.72611466702074,,,,,,,,,,,,,,,,,,,,,,,,488.7208460419206,488.72611466702074,490.7058829169255,490.7059277499793,490.71015408297535,490.71015408297535,491.69367991702165,None,0,,,491.69374499993864,491.7056464999914,492.72629416699056,492.6891651250189,491.7056464999914,491.7056464999914,,,,,,,,,,,,,,,,,,,510,001,,,2026-03-28_20h56.20.269,encodingtask,,2025.2.4,None,2026-03-28 20h56.20.619229 +0100,
2,42,42,0,stimuli/TESTscenes/UA_1.jpg,Undersea,Somar,stimuli/items/undersea_object_4.png,Undersea,object,sc,stimuli/integrated/undersea_b_undersea_object_4.jpg,None,0,,,,,,0,1,1,1,0,42,42,42,,,,,492.72629416699056,,,,,,,,,,,,,,,,,,,,,,,,492.72105149994604,492.72629416699056,494.7058573329123,494.7059040829772,494.7107626249781,494.7107626249781,495.69408862502314,None,0,,,495.69419075001497,495.70566645800136,496.7268457500031,496.6889626670163,495.70566645800136,495.70566645800136,,,,,,,,,,,,,,,,,,,510,001,,,2026-03-28_20h56.20.269,encodingtask,,2025.2.4,None,2026-03-28 20h56.20.619229 +0100,
2,43,43,0,stimuli/TESTscenes/JB_1.jpg,Jungle,Tulon,stimuli/items/jungle_animal_37.png,Jungle,animal,sc,stimuli/integrated/jungle_b_jungle_animal_37.jpg,None,0,,,,,,0,1,1,1,0,43,43,43,,,,,496.7268457500031,,,,,,,,,,,,,,,,,,,,,,,,496.72144937491976,496.7268457500031,498.70590416691266,498.70594287500717,498.70983795798384,498.70983795798384,499.6940135419136,None,0,,,499.69408795796335,499.70561341696884,500.7268084170064,500.68911083298735,499.70561341696884,499.70561341696884,,,,,,,,,,,,,,,,,,,510,001,,,2026-03-28_20h56.20.269,encodingtask,,2025.2.4,None,2026-03-28 20h56.20.619229 +0100,
2,44,44,0,stimuli/TESTscenes/UB_1.jpg,Undersea,Malbow,stimuli/items/jungle_animal_8.png,Jungle,animal,si,stimuli/integrated/undersea_a_jungle_animal_8.jpg,None,0,,,,,,0,1,1,1,0,44,44,44,,,,,500.7268084170064,,,,,,,,,,,,,,,,,,,,,,,,500.7215042919852,500.7268084170064,502.7055729579879,502.70561175001785,502.7099142499501,502.7099142499501,503.6940259579569,None,0,,,503.6940911669517,503.70557062490843,504.72713016695343,504.6890623329673,503.70557062490843,503.70557062490843,,,,,,,,,,,,,,,,,,,510,001,,,2026-03-28_20h56.20.269,encodingtask,,2025.2.4,None,2026-03-28 20h56.20.619229 +0100,
2,45,45,0,stimuli/TESTscenes/JB_1.jpg,Jungle,Tulon,stimuli/items/jungle_animal_40.png,Jungle,animal,sc,stimuli/integrated/jungle_a_jungle_animal_40.jpg,None,0,,,,,,0,1,1,1,0,45,45,45,,,,,504.72713016695343,,,,,,,,,,,,,,,,,,,,,,,,504.7218380420236,504.72713016695343,506.70576529193204,506.70581495796796,506.7104405419668,506.7104405419668,507.6934986669803,None,0,,,507.69355879200157,507.7056865829509,508.7261825000169,508.6890853329096,507.7056865829509,507.7056865829509,,,,,,,,,,,,,,,,,,,510,001,,,2026-03-28_20h56.20.269,encodingtask,,2025.2.4,None,2026-03-28 20h56.20.619229 +0100,
2,46,46,0,stimuli/TESTscenes/JA_1.jpg,Jungle,Negvi,stimuli/items/jungle_animal_30.png,Jungle,animal,sc,stimuli/integrated/jungle_a_jungle_animal_30.jpg,None,0,,,,,,0,1,1,1,0,46,46,46,,,,,508.7261825000169,,,,,,,,,,,,,,,,,,,,,,,,508.7208533330122,508.7261825000169,510.7055995829869,510.7056314579677,510.70952866692096,510.70952866692096,511.69419025001116,None,0,,,511.69426349992864,511.7055367080029,512.727722166921,512.6890295000048,511.7055367080029,511.7055367080029,,,,,,,,,,,,,,,,,,,510,001,,,2026-03-28_20h56.20.269,encodingtask,,2025.2.4,None,2026-03-28 20h56.20.619229 +0100,
2,47,47,0,stimuli/TESTscenes/UB_1.jpg,Undersea,Malbow,stimuli/items/undersea_object_2.png,Undersea,object,sc,stimuli/integrated/undersea_b_undersea_object_2.jpg,None,0,,,,,,0,1,1,1,0,47,47,47,,,,,512.727722166921,,,,,,,,,,,,,,,,,,,,,,,,512.722561707953,512.727722166921,514.7057231250219,514.705777416937,514.7105802500155,514.7105802500155,515.7056599169737,None,0,,,515.7057219579583,515.7094377499307,516.7396317919483,516.6941314579453,,,,,,,,,,,,,,,,,,,,,510,001,,,2026-03-28_20h56.20.269,encodingtask,,2025.2.4,None,2026-03-28 20h56.20.619229 +0100,
2,48,48,0,stimuli/TESTscenes/JA_1.jpg,Jungle,Negvi,stimuli/items/jungle_animal_32.png,Jungle,animal,sc,stimuli/integrated/jungle_a_jungle_animal_32.jpg,None,0,,,,,,0,1,1,1,0,48,48,48,,,,,516.7396317919483,,,,,,,,,,,,,,,,,,,,,,,,516.7344884580234,516.7396317919483,518.7057128750021,518.7057676250115,518.7103104169946,518.7103104169946,519.6942339579109,None,0,,,519.6943093329901,519.7054128749296,520.7271534169558,520.6889624999603,519.7054128749296,519.7054128749296,,,,,,,,,,,,,,,,,,,510,001,,,2026-03-28_20h56.20.269,encodingtask,,2025.2.4,None,2026-03-28 20h56.20.619229 +0100,
2,49,49,0,stimuli/TESTscenes/UA_1.jpg,Undersea,Somar,stimuli/items/jungle_animal_13.png,Jungle,animal,si,stimuli/integrated/undersea_a_jungle_animal_13.jpg,None,0,,,,,,0,1,1,1,0,49,49,49,,,,,520.7271534169558,,,,,,,,,,,,,,,,,,,,,,,,520.7218508329242,520.7271534169558,522.705484499922,522.7055352919269,522.7106309169903,522.7106309169903,523.6934814999113,None,0,,,523.6935590829235,523.7053650419693,524.7270207079127,524.6888354169205,523.7053650419693,523.7053650419693,,,,,,,,,,,,,,,,,,,510,001,,,2026-03-28_20h56.20.269,encodingtask,,2025.2.4,None,2026-03-28 20h56.20.619229 +0100,
2,50,50,0,stimuli/TESTscenes/JB_1.jpg,Jungle,Tulon,stimuli/items/undersea_object_39.png,Undersea,object,si,stimuli/integrated/jungle_b_undersea_object_39.jpg,None,0,,,,,,0,1,1,1,0,50,50,50,,,,,524.7270207079127,,,,,,,,,,,,,,,,,,,,,,,,524.7217122919392,524.7270207079127,526.7056916669244,526.7057313330006,526.7099619579967,526.7099619579967,527.6935437079519,None,0,,,527.6936294169864,527.7054183329456,528.727306041983,528.6889107919997,527.7054183329456,527.7054183329456,,,,,,,,,,,,,,,,,,,510,001,,,2026-03-28_20h56.20.269,encodingtask,,2025.2.4,None,2026-03-28 20h56.20.619229 +0100,
2,51,51,0,stimuli/TESTscenes/UB_1.jpg,Undersea,Malbow,stimuli/items/jungle_animal_17.png,Jungle,animal,si,stimuli/integrated/undersea_a_jungle_animal_17.jpg,None,0,,,,,,0,1,1,1,0,51,51,51,,,,,528.727306041983,,,,,,,,,,,,,,,,,,,,,,,,528.722042792011,528.727306041983,530.705635958002,530.7056826669723,530.7104899579426,530.7104899579426,531.6937380419113,None,0,,,531.6937966669211,531.7055985829793,532.7315751250135,532.6891342919553,531.7055985829793,531.7055985829793,,,,,,,,,,,,,,,,,,,510,001,,,2026-03-28_20h56.20.269,encodingtask,,2025.2.4,None,2026-03-28 20h56.20.619229 +0100,
2,52,52,0,stimuli/TESTscenes/JA_1.jpg,Jungle,Negvi,stimuli/items/jungle_object_5.png,Jungle,object,sc,stimuli/integrated/jungle_b_jungle_object_5.jpg,None,0,,,,,,0,1,1,1,0,52,52,52,,,,,532.7315751250135,,,,,,,,,,,,,,,,,,,,,,,,532.7261426249752,532.7315751250135,534.7056344170123,534.7056764169829,534.7096929169493,534.7096929169493,535.6938641249435,None,0,,,535.693977167015,535.7053420419106,536.7287602919387,536.6888531249715,535.7053420419106,535.7053420419106,,,,,,,,,,,,,,,,,,,510,001,,,2026-03-28_20h56.20.269,encodingtask,,2025.2.4,None,2026-03-28 20h56.20.619229 +0100,
2,53,53,0,stimuli/TESTscenes/UB_1.jpg,Undersea,Malbow,stimuli/items/undersea_object_18.png,Undersea,object,sc,stimuli/integrated/undersea_a_undersea_object_18.jpg,None,0,,,,,,0,1,1,1,0,53,53,53,,,,,536.7287602919387,,,,,,,,,,,,,,,,,,,,,,,,536.7235107079614,536.7287602919387,538.705375791993,538.7054215829121,538.7096992499428,538.7096992499428,539.693676416995,None,0,,,539.6937346669147,539.705240124953,540.7269172079396,540.6889600419672,539.705240124953,539.705240124953,,,,,,,,,,,,,,,,,,,510,001,,,2026-03-28_20h56.20.269,encodingtask,,2025.2.4,None,2026-03-28 20h56.20.619229 +0100,
2,54,54,0,stimuli/TESTscenes/UA_1.jpg,Undersea,Somar,stimuli/items/jungle_object_30.png,Jungle,object,si,stimuli/integrated/undersea_a_jungle_object_30.jpg,None,0,,,,,,0,1,1,1,0,54,54,54,,,,,540.7269172079396,,,,,,,,,,,,,,,,,,,,,,,,540.7217026249273,540.7269172079396,542.7053409579676,542.7053741249256,542.7089723329991,542.7089723329991,543.6932664170163,None,0,,,543.693325500004,543.7053034999408,544.7255405000178,544.6888072079746,543.7053034999408,543.7053034999408,,,,,,,,,,,,,,,,,,,510,001,,,2026-03-28_20h56.20.269,encodingtask,,2025.2.4,None,2026-03-28 20h56.20.619229 +0100,
2,55,55,0,stimuli/TESTscenes/UB_1.jpg,Undersea,Malbow,stimuli/items/jungle_animal_14.png,Jungle,animal,si,stimuli/integrated/undersea_a_jungle_animal_14.jpg,None,0,,,,,,0,1,1,1,0,55,55,55,,,,,544.7255405000178,,,,,,,,,,,,,,,,,,,,,,,,544.7201595419319,544.7255405000178,546.7052159579471,546.7052626669174,546.7101632079575,546.7101632079575,547.692931916914,None,0,,,547.6930138749303,547.705269958009,548.726708333008,548.6887999579776,547.705269958009,547.705269958009,,,,,,,,,,,,,,,,,,,510,001,,,2026-03-28_20h56.20.269,encodingtask,,2025.2.4,None,2026-03-28 20h56.20.619229 +0100,
2,56,56,0,stimuli/TESTscenes/UA_1.jpg,Undersea,Somar,stimuli/items/undersea_animal_15.png,Undersea,animal,sc,stimuli/integrated/undersea_a_undersea_animal_15.jpg,None,0,,,,,,0,1,1,1,0,56,56,56,,,,,548.726708333008,,,,,,,,,,,,,,,,,,,,,,,,548.7213171250187,548.726708333008,550.7053699579556,550.7054215419339,550.7099355829414,550.7099355829414,551.693472291925,None,0,,,551.693540917011,551.7052492079092,552.7229849169962,552.6891342499293,551.7052492079092,551.7052492079092,,,,,,,,,,,,,,,,,,,510,001,,,2026-03-28_20h56.20.269,encodingtask,,2025.2.4,None,2026-03-28 20h56.20.619229 +0100,
2,57,57,0,stimuli/TESTscenes/UB_1.jpg,Undersea,Malbow,stimuli/items/jungle_animal_18.png,Jungle,animal,si,stimuli/integrated/undersea_a_jungle_animal_18.jpg,None,0,,,,,,0,1,1,1,0,57,57,57,,,,,552.7229849169962,,,,,,,,,,,,,,,,,,,,,,,,552.7176230419427,552.7229849169962,554.7050899169408,554.7051371670095,554.708697416936,554.708697416936,555.6932124169543,None,0,,,555.6932725419756,555.7053022499895,556.7275949169416,556.6886207499774,555.7053022499895,555.7053022499895,,,,,,,,,,,,,,,,,,,510,001,,,2026-03-28_20h56.20.269,encodingtask,,2025.2.4,None,2026-03-28 20h56.20.619229 +0100,
2,58,58,0,stimuli/TESTscenes/UA_1.jpg,Undersea,Somar,stimuli/items/jungle_object_28.png,Jungle,object,si,stimuli/integrated/undersea_b_jungle_object_28.jpg,None,0,,,,,,0,1,1,1,0,58,58,58,,,,,556.7275949169416,,,,,,,,,,,,,,,,,,,,,,,,556.7221521669999,556.7275949169416,558.705540707917,558.7056325419107,558.7102585829562,558.7102585829562,559.6935347499093,None,0,,,559.6936269169673,559.7050995419268,560.7301630419679,560.6887029169593,559.7050995419268,559.7050995419268,,,,,,,,,,,,,,,,,,,510,001,,,2026-03-28_20h56.20.269,encodingtask,,2025.2.4,None,2026-03-28 20h56.20.619229 +0100,
2,59,59,0,stimuli/TESTscenes/UB_1.jpg,Undersea,Malbow,stimuli/items/jungle_object_26.png,Jungle,object,si,stimuli/integrated/undersea_b_jungle_object_26.jpg,None,0,,,,,,0,1,1,1,0,59,59,59,,,,,560.7301630419679,,,,,,,,,,,,,,,,,,,,,,,,560.7247679579305,560.7301630419679,562.7052120419685,562.7052574169356,562.7099506669911,562.7099506669911,563.6931214169599,None,0,,,563.6931830829708,563.7051327499794,564.7277810829692,564.6887462919112,563.7051327499794,563.7051327499794,,,,,,,,,,,,,,,,,,,510,001,,,2026-03-28_20h56.20.269,encodingtask,,2025.2.4,None,2026-03-28 20h56.20.619229 +0100,
2,60,60,0,stimuli/TESTscenes/UA_1.jpg,Undersea,Somar,stimuli/items/undersea_animal_20.png,Undersea,animal,sc,stimuli/integrated/undersea_b_undersea_animal_20.jpg,None,0,,,,,,0,1,1,1,0,60,60,60,,,,,564.7277810829692,,,,,,,,,,,,,,,,,,,,,,,,564.7223201669985,564.7277810829692,566.705162749975,566.7052092920057,566.7101127499482,566.7101127499482,567.6934952499578,None,0,,,567.6935647500213,567.7051359169418,568.730708124931,568.6886346249375,567.7051359169418,567.7051359169418,,,,,,,,,,,,,,,,,,,510,001,,,2026-03-28_20h56.20.269,encodingtask,,2025.2.4,None,2026-03-28 20h56.20.619229 +0100,
2,61,61,0,stimuli/TESTscenes/UB_1.jpg,Undersea,Malbow,stimuli/items/jungle_object_24.png,Jungle,object,si,stimuli/integrated/undersea_a_jungle_object_24.jpg,None,0,,,,,,0,1,1,1,0,61,61,61,,,,,568.730708124931,,,,,,,,,,,,,,,,,,,,,,,,568.7254361669766,568.730708124931,570.7052261249628,570.7052682079375,570.7090987499105,570.7090987499105,571.6926570419455,None,0,,,571.6927344580181,571.705080457963,,572.7038036669837,571.705080457963,571.705080457963,,,,,,,,,,,,,,,,,,,510,001,,,2026-03-28_20h56.20.269,encodingtask,,2025.2.4,None,2026-03-28 20h56.20.619229 +0100,
2,62,62,0,stimuli/TESTscenes/JA_1.jpg,Jungle,Negvi,stimuli/items/jungle_animal_29.png,Jungle,animal,sc,stimuli/integrated/jungle_a_jungle_animal_29.jpg,None,0,,,,,,0,1,1,1,0,62,62,62,,,,,572.7525702499552,,,,,,,,,,,,,,,,,,,,,,,,572.7466106669744,572.7525702499552,574.7051727079088,574.7052661249181,574.7094458750216,574.7094458750216,575.693177292007,None,0,,,575.6932960419217,575.7050553329755,576.7271600000095,576.6885567079298,575.7050553329755,575.7050553329755,,,,,,,,,,,,,,,,,,,510,001,,,2026-03-28_20h56.20.269,encodingtask,,2025.2.4,None,2026-03-28 20h56.20.619229 +0100,
2,63,63,0,stimuli/TESTscenes/UB_1.jpg,Undersea,Malbow,stimuli/items/jungle_object_39.png,Jungle,object,si,stimuli/integrated/undersea_a_jungle_object_39.jpg,None,0,,,,,,0,1,1,1,0,63,63,63,,,,,576.7271600000095,,,,,,,,,,,,,,,,,,,,,,,,576.721736916923,576.7271600000095,578.7050476669101,578.7051224579336,578.7090509169502,578.7090509169502,579.6940687500173,None,0,,,579.6942854579538,579.7050492080161,580.7329076669412,580.6885136669734,579.7050492080161,579.7050492080161,,,,,,,,,,,,,,,,,,,510,001,,,2026-03-28_20h56.20.269,encodingtask,,2025.2.4,None,2026-03-28 20h56.20.619229 +0100,
2,64,64,0,stimuli/TESTscenes/JA_1.jpg,Jungle,Negvi,stimuli/items/undersea_animal_33.png,Undersea,animal,si,stimuli/integrated/jungle_b_undersea_animal_33.jpg,None,0,,,,,,0,1,1,1,0,64,64,64,,,,,580.7329076669412,,,,,,,,,,,,,,,,,,,,,,,,580.7275240420131,580.7329076669412,582.7050563329831,582.7051572080236,582.7096559170168,582.7096559170168,583.6930328329327,None,0,,,583.693099791999,583.7049344580155,584.7279247499537,584.6884730419843,583.7049344580155,583.7049344580155,,,,,,,,,,,,,,,,,,,510,001,,,2026-03-28_20h56.20.269,encodingtask,,2025.2.4,None,2026-03-28 20h56.20.619229 +0100,
2,65,65,0,stimuli/TESTscenes/UB_1.jpg,Undersea,Malbow,stimuli/items/undersea_animal_8.png,Undersea,animal,sc,stimuli/integrated/undersea_a_undersea_animal_8.jpg,None,0,,,,,,0,1,1,1,0,65,65,65,,,,,584.7279247499537,,,,,,,,,,,,,,,,,,,,,,,,584.7226695419522,584.7279247499537,586.7049960829318,586.7050425829366,586.7094600829296,586.7094600829296,587.6948868329637,None,0,,,587.694961583009,587.7047968329862,588.7289227920119,588.6885063749505,587.7047968329862,587.7047968329862,,,,,,,,,,,,,,,,,,,510,001,,,2026-03-28_20h56.20.269,encodingtask,,2025.2.4,None,2026-03-28 20h56.20.619229 +0100,
2,66,66,0,stimuli/TESTscenes/JA_1.jpg,Jungle,Negvi,stimuli/items/jungle_animal_41.png,Jungle,animal,sc,stimuli/integrated/jungle_b_jungle_animal_41.jpg,None,0,,,,,,0,1,1,1,0,66,66,66,,,,,588.7289227920119,,,,,,,,,,,,,,,,,,,,,,,,588.7235562079586,588.7289227920119,590.7049969579093,590.7050899169408,590.7093608329305,590.7093608329305,591.6936167499516,None,0,,,591.6936759999953,591.7049991670065,592.727228624979,592.6884417919209,591.7049991670065,591.7049991670065,,,,,,,,,,,,,,,,,,,510,001,,,2026-03-28_20h56.20.269,encodingtask,,2025.2.4,None,2026-03-28 20h56.20.619229 +0100,
2,67,67,0,stimuli/TESTscenes/UA_1.jpg,Undersea,Somar,stimuli/items/jungle_object_22.png,Jungle,object,si,stimuli/integrated/undersea_b_jungle_object_22.jpg,None,0,,,,,,0,1,1,1,0,67,67,67,,,,,592.727228624979,,,,,,,,,,,,,,,,,,,,,,,,592.7219304169994,592.727228624979,594.7049397919327,594.705003125011,594.7102702079574,594.7102702079574,595.6933049169602,None,0,,,595.6933642079821,595.7049298749771,596.7267432499211,596.68849820795,595.7049298749771,595.7049298749771,,,,,,,,,,,,,,,,,,,510,001,,,2026-03-28_20h56.20.269,encodingtask,,2025.2.4,None,2026-03-28 20h56.20.619229 +0100,
2,68,68,0,stimuli/TESTscenes/JA_1.jpg,Jungle,Negvi,stimuli/items/jungle_object_4.png,Jungle,object,sc,stimuli/integrated/jungle_b_jungle_object_4.jpg,None,0,,,,,,0,1,1,1,0,68,68,68,,,,,596.7267432499211,,,,,,,,,,,,,,,,,,,,,,,,596.72129841696,596.7267432499211,598.7049157079309,598.7049616669537,598.7097005830146,598.7097005830146,599.6941284999484,None,0,,,599.6946127919946,599.704968374921,600.7390419580042,600.6883749170229,599.704968374921,599.704968374921,,,,,,,,,,,,,,,,,,,510,001,,,2026-03-28_20h56.20.269,encodingtask,,2025.2.4,None,2026-03-28 20h56.20.619229 +0100,
2,69,69,0,stimuli/TESTscenes/UA_1.jpg,Undersea,Somar,stimuli/items/jungle_object_34.png,Jungle,object,si,stimuli/integrated/undersea_a_jungle_object_34.jpg,None,0,,,,,,0,1,1,1,0,69,69,69,,,,,600.7390419580042,,,,,,,,,,,,,,,,,,,,,,,,600.7330760419136,600.7390419580042,602.7048610419733,602.7049111669185,602.7097866249969,602.7097866249969,603.693332750001,None,0,,,603.6934055829188,603.7049306669505,604.7264525829814,604.6882013329305,603.7049306669505,603.7049306669505,,,,,,,,,,,,,,,,,,,510,001,,,2026-03-28_20h56.20.269,encodingtask,,2025.2.4,None,2026-03-28 20h56.20.619229 +0100,
2,70,70,0,stimuli/TESTscenes/JA_1.jpg,Jungle,Negvi,stimuli/items/jungle_object_20.png,Jungle,object,sc,stimuli/integrated/jungle_a_jungle_object_20.jpg,None,0,,,,,,0,1,1,1,0,70,70,70,,,,,604.7264525829814,,,,,,,,,,,,,,,,,,,,,,,,604.7210707919439,604.7264525829814,606.7051484999247,606.7051880420186,606.7090245420113,606.7090245420113,607.6932948329486,None,0,,,607.6933687919518,607.7048325829674,608.7236987500219,608.6876283750171,607.7048325829674,607.7048325829674,,,,,,,,,,,,,,,,,,,510,001,,,2026-03-28_20h56.20.269,encodingtask,,2025.2.4,None,2026-03-28 20h56.20.619229 +0100,
2,71,71,0,stimuli/TESTscenes/UA_1.jpg,Undersea,Somar,stimuli/items/undersea_object_17.png,Undersea,object,sc,stimuli/integrated/undersea_b_undersea_object_17.jpg,None,0,,,,,,0,1,1,1,0,71,71,71,,,,,608.7236987500219,,,,,,,,,,,,,,,,,,,,,,,,608.7185020829784,608.7236987500219,610.7049052499933,610.7049471249338,610.7092473329976,610.7092473329976,611.6931742079323,None,0,,,611.6932319999905,611.7048455829499,612.726932791993,612.6882119579241,611.7048455829499,611.7048455829499,,,,,,,,,,,,,,,,,,,510,001,,,2026-03-28_20h56.20.269,encodingtask,,2025.2.4,None,2026-03-28 20h56.20.619229 +0100,
2,72,72,0,stimuli/TESTscenes/JB_1.jpg,Jungle,Tulon,stimuli/items/jungle_object_14.png,Jungle,object,sc,stimuli/integrated/jungle_a_jungle_object_14.jpg,None,0,,,,,,0,1,1,1,0,72,72,72,,,,,612.726932791993,,,,,,,,,,,,,,,,,,,,,,,,612.7215383329894,612.726932791993,614.704828292015,614.7048827499384,614.7096956250025,614.7096956250025,615.6934798749862,None,0,,,615.6935525829904,615.7047806249466,616.72591249994,616.6880392919993,615.7047806249466,615.7047806249466,,,,,,,,,,,,,,,,,,,510,001,,,2026-03-28_20h56.20.269,encodingtask,,2025.2.4,None,2026-03-28 20h56.20.619229 +0100,
2,73,73,0,stimuli/TESTscenes/UA_1.jpg,Undersea,Somar,stimuli/items/undersea_animal_11.png,Undersea,animal,sc,stimuli/integrated/undersea_b_undersea_animal_11.jpg,None,0,,,,,,0,1,1,1,0,73,73,73,,,,,616.72591249994,,,,,,,,,,,,,,,,,,,,,,,,616.7206124169752,616.72591249994,618.7047739169793,618.7048197919503,618.7096221249085,618.7096221249085,619.693148707971,None,0,,,619.6932211669628,619.7047559169587,620.7279924579198,620.6882617919473,619.7047559169587,619.7047559169587,,,,,,,,,,,,,,,,,,,510,001,,,2026-03-28_20h56.20.269,encodingtask,,2025.2.4,None,2026-03-28 20h56.20.619229 +0100,
2,74,74,0,stimuli/TESTscenes/JA_1.jpg,Jungle,Negvi,stimuli/items/undersea_animal_27.png,Undersea,animal,si,stimuli/integrated/jungle_a_undersea_animal_27.jpg,None,0,,,,,,0,1,1,1,0,74,74,74,,,,,620.7279924579198,,,,,,,,,,,,,,,,,,,,,,,,620.7227384169819,620.7279924579198,622.704755667015,622.7048012500163,622.709486000007,622.709486000007,623.693259541993,None,0,,,623.6933198330225,623.7047399169533,624.7292872919934,624.6882474579616,623.7047399169533,623.7047399169533,,,,,,,,,,,,,,,,,,,510,001,,,2026-03-28_20h56.20.269,encodingtask,,2025.2.4,None,2026-03-28 20h56.20.619229 +0100,
2,75,75,0,stimuli/TESTscenes/UA_1.jpg,Undersea,Somar,stimuli/items/jungle_object_33.png,Jungle,object,si,stimuli/integrated/undersea_b_jungle_object_33.jpg,None,0,,,,,,0,1,1,1,0,75,75,75,,,,,624.7292872919934,,,,,,,,,,,,,,,,,,,,,,,,624.7238962919218,624.7292872919934,626.7047807499766,626.7048804999795,626.7096008330118,626.7096008330118,627.6929114169907,None,0,,,627.6930437079864,627.7047207079595,628.7295578329358,628.6881867919583,627.7047207079595,627.7047207079595,,,,,,,,,,,,,,,,,,,510,001,,,2026-03-28_20h56.20.269,encodingtask,,2025.2.4,None,2026-03-28 20h56.20.619229 +0100,
2,76,76,0,stimuli/TESTscenes/JA_1.jpg,Jungle,Negvi,stimuli/items/jungle_animal_35.png,Jungle,animal,sc,stimuli/integrated/jungle_a_jungle_animal_35.jpg,None,0,,,,,,0,1,1,1,0,76,76,76,,,,,628.7295578329358,,,,,,,,,,,,,,,,,,,,,,,,628.7241770420223,628.7295578329358,630.7046752079623,630.7047157079214,630.7090079579502,630.7090079579502,631.6926552079385,None,0,,,631.6927339999238,631.7047907919623,632.7285945829935,632.6881989169633,631.7047907919623,631.7047907919623,,,,,,,,,,,,,,,,,,,510,001,,,2026-03-28_20h56.20.269,encodingtask,,2025.2.4,None,2026-03-28 20h56.20.619229 +0100,
2,77,77,0,stimuli/TESTscenes/JB_1.jpg,Jungle,Tulon,stimuli/items/undersea_animal_26.png,Undersea,animal,si,stimuli/integrated/jungle_b_undersea_animal_26.jpg,None,0,,,,,,0,1,1,1,0,77,77,77,,,,,632.7285945829935,,,,,,,,,,,,,,,,,,,,,,,,632.7232878749492,632.7285945829935,634.704574125004,634.7046169999521,634.7083183749346,634.7083183749346,635.6928889169358,None,0,,,635.6929609170184,635.7045639170101,636.7275835420005,636.688214332913,635.7045639170101,635.7045639170101,,,,,,,,,,,,,,,,,,,510,001,,,2026-03-28_20h56.20.269,encodingtask,,2025.2.4,None,2026-03-28 20h56.20.619229 +0100,
2,78,78,0,stimuli/TESTscenes/UA_1.jpg,Undersea,Somar,stimuli/items/undersea_animal_3.png,Undersea,animal,sc,stimuli/integrated/undersea_a_undersea_animal_3.jpg,None,0,,,,,,0,1,1,1,0,78,78,78,,,,,636.7275835420005,,,,,,,,,,,,,,,,,,,,,,,,636.7221872080117,636.7275835420005,638.7045702500036,638.7046159579186,638.7088676249841,638.7088676249841,639.6929748749826,None,0,,,639.6930472499225,639.7046104170149,640.7275622920133,640.6881292079343,639.7046104170149,639.7046104170149,,,,,,,,,,,,,,,,,,,510,001,,,2026-03-28_20h56.20.269,encodingtask,,2025.2.4,None,2026-03-28 20h56.20.619229 +0100,
2,79,79,0,stimuli/TESTscenes/UB_1.jpg,Undersea,Malbow,stimuli/items/jungle_object_41.png,Jungle,object,si,stimuli/integrated/undersea_a_jungle_object_41.jpg,None,0,,,,,,0,1,1,1,0,79,79,79,,,,,640.7275622920133,,,,,,,,,,,,,,,,,,,,,,,,640.7222101249499,640.7275622920133,642.7045399999479,642.7045771249104,642.708470457932,642.708470457932,643.6911460829433,None,0,,,643.6912221669918,643.7046082079178,644.7116251249099,644.6880543329753,643.7046082079178,643.7046082079178,,,,,,,,,,,,,,,,,,,510,001,,,2026-03-28_20h56.20.269,encodingtask,,2025.2.4,None,2026-03-28 20h56.20.619229 +0100,
2,0,0,0,,,,,,,,,,,,,space,43.2575206249021,None,0,1,1,1,,,,,0,0,0,0,644.7116251249099,,,,,,,,,,,,,,,,,,,,,,,,,,,,,,,,,,,,,,,,,,644.7051979579264,644.7052814579802,644.7061243749922,644.7116251249099,644.7116251249099,644.7116251249099,687.9740794579266,space,43.2575206249021,None,,,,,,,,510,001,,,2026-03-28_20h56.20.269,encodingtask,,2025.2.4,None,2026-03-28 20h56.20.619229 +0100,
2,1,1,0,,,,,,,,,,,,,,,,0,1,1,1,,,,,,,,,,,,,,,,,,,,,,,,,,,,,,,,,,,,,,,,,,,,,,,,,,,,,,,,,,,,,,,,,,,,510,001,,,2026-03-28_20h56.20.269,encodingtask,,2025.2.4,None,2026-03-28 20h56.20.619229 +0100,
3,0,0,0,stimuli/TESTscenes/UB_1.jpg,Undersea,Malbow,stimuli/items/undersea_object_12.png,Undersea,object,sc,stimuli/integrated/undersea_b_undersea_object_12.jpg,None,0,,,,,,0,2,2,2,0,0,0,0,,,,,688.046819082927,,,,,,,,,,,,,,,,,,,,,,687.9762169580208,687.9762864169898,688.0288595419843,688.046819082927,689.9878935000161,689.9879427499836,689.9929727499839,689.9929727499839,690.9757496250095,None,0,,,690.9758113749558,690.9874780420214,692.0117223749403,691.9711759999627,690.9874780420214,690.9874780420214,,,,,,,,,,,,,,,,,,,510,001,,,2026-03-28_20h56.20.269,encodingtask,,2025.2.4,None,2026-03-28 20h56.20.619229 +0100,
