run,thisN,thisTrialN,thisRepN,scene_stimulus,scene_cat,scene_label,item_stimulus,item_cat,item_type,congruency,integrated_stimulus,key_resp_congruency.keys,key_resp_congruency.corr,key_resp_congruency.rt,key_resp_congruency.duration,key_resp_next_run.keys,key_resp_next_run.rt,key_resp_next_run.duration,runs_trial.thisRepN,runs_trial.thisTrialN,runs_trial.thisN,runs_trial.thisIndex,trials.thisRepN,trials.thisTrialN,trials.thisN,trials.thisIndex,between_run_inst.thisRepN,between_run_inst.thisTrialN,between_run_inst.thisN,between_run_inst.thisIndex,thisRow.t,notes,get_relatedness_keys.started,get_relatedness_keys.stopped,instructions_screen.started,text_instructions.started,key_welcome.started,instructions_screen.stopped,key_welcome.keys,key_welcome.rt,key_welcome.duration,instruction_keys.started,text_keys.started,key_resp_keysInst.started,instruction_keys.stopped,key_resp_keysInst.keys,key_resp_keysInst.rt,key_resp_keysInst.duration,blank2000.started,text_2.started,text_2.stopped,blank2000.stopped,get_run_stim_list.started,get_run_stim_list.stopped,integrated_scene_presentation.started,image_integrated.started,integrated_scene_presentation.stopped,congruency_response.started,text_congruency.started,key_resp_congruency.started,congruency_response.stopped,trials.key_resp_congruency.keys,trials.key_resp_congruency.corr,trials.key_resp_congruency.rt,trials.key_resp_congruency.duration,blank1000.started,text_8.started,blank1000.stopped,text_congruency.stopped,key_resp_congruency.stopped,text_8.stopped,is_last_run.started,is_last_run.stopped,between_run_pause.started,text_run_pause.started,text_relatedness_pause.started,key_resp_next_run.started,between_run_pause.stopped,between_run_inst.key_resp_next_run.keys,between_run_inst.key_resp_next_run.rt,between_run_inst.key_resp_next_run.duration,participant,session,group,delay,date,expName,expVersion,psychopyVersion,frameRate,expStart,
,,,,,,,,,,,,,,,,,,,,,,,,,,,,,,,,,0.014756000018678606,0.015025084023363888,,,,,,,,,,,,,,,,,,,,,,,,,,,,,,,,,,,,,,,,,,,,,,,,550,001,,,2026-03-31_00h19.47.604,encodingtask,,2025.2.4,None,2026-03-31 00h19.47.991052 +0200,
,,,,,,,,,,,,,,,,,,,,,,,,,,,,,,,,,,,0.015049666981212795,0.02517341694328934,1.010348542011343,16.421742541948333,space,15.027811540989205,None,,,,,,,,,,,,,,,,,,,,,,,,,,,,,,,,,,,,,,,,,550,001,,,2026-03-31_00h19.47.604,encodingtask,,2025.2.4,None,2026-03-31 00h19.47.991052 +0200,
,,,,,,,,,,,,,,,,,,,,,,,,,,,,,,,,,,,,,,,,,,16.4368941669818,16.471619084011763,16.471619084011763,18.08838704205118,space,1.6071081240661442,None,,,,,,,,,,,,,,,,,,,,,,,,,,,,,,,,,,550,001,,,2026-03-31_00h19.47.604,encodingtask,,2025.2.4,None,2026-03-31 00h19.47.991052 +0200,
,,,,,,,,,,,,,,,,,,,,,,,,,,,,,,,,,,,,,,,,,,,,,,,,,18.088471374940127,18.1008456669515,20.203689916990697,20.087408625055104,,,,,,,,,,,,,,,,,,,,,,,,,,,,,,550,001,,,2026-03-31_00h19.47.604,encodingtask,,2025.2.4,None,2026-03-31 00h19.47.991052 +0200,
1,0,0,0,stimuli/TESTscenes/JA_1.jpg,Jungle,Tulon,stimuli/items/jungle_animal_4.png,Jungle,animal,sc,stimuli/integrated/jungle_b_jungle_animal_4.jpg,q,0,0.5489159160060808,None,,,,0,0,0,0,0,0,0,0,,,,,20.203689916990697,,,,,,,,,,,,,,,,,,,,,,20.120129375020042,20.120194250019267,20.195727459038608,20.203689916990697,22.126546125044115,22.126654083956964,22.135114458971657,22.135114458971657,22.68811245902907,q,0,0.5489159160060808,None,22.68824091705028,22.705229958985,23.69299766700715,,,,,,,,,,,,,,550,001,,,2026-03-31_00h19.47.604,encodingtask,,2025.2.4,None,2026-03-31 00h19.47.991052 +0200,
1,1,1,0,stimuli/TESTscenes/UA_1.jpg,Undersea,Somar,stimuli/items/jungle_animal_29.png,Jungle,animal,si,stimuli/integrated/undersea_a_jungle_animal_29.jpg,None,0,,,,,,0,0,0,0,0,1,1,1,,,,,23.737080042017624,,,,,,,,,,,,,,,,,,,,,,,,23.73194579198025,23.737080042017624,25.693915333948098,25.694015208981,25.702861209050752,25.702861209050752,26.686983459047042,None,0,,,26.687126499949954,26.693188125034794,27.676331541966647,26.693188125034794,26.693188125034794,27.71801425004378,,,,,,,,,,,550,001,,,2026-03-31_00h19.47.604,encodingtask,,2025.2.4,None,2026-03-31 00h19.47.991052 +0200,
1,2,2,0,stimuli/TESTscenes/JA_1.jpg,Jungle,Tulon,stimuli/items/jungle_object_3.png,Jungle,object,sc,stimuli/integrated/jungle_a_jungle_object_3.jpg,p,1,0.29557583294808865,None,,,,0,0,0,0,0,2,2,2,,,,,27.71801425004378,,,,,,,,,,,,,,,,,,,,,,,,27.71254500001669,27.71801425004378,29.69276170898229,29.692844124976546,29.703103750012815,29.703103750012815,30.00530241697561,p,1,0.29557583294808865,None,30.005506625049748,30.017108584055677,31.003711667028256,,,31.043091334053315,,,,,,,,,,,550,001,,,2026-03-31_00h19.47.604,encodingtask,,2025.2.4,None,2026-03-31 00h19.47.991052 +0200,
1,3,3,0,stimuli/TESTscenes/JB_1.jpg,Jungle,Malbow,stimuli/items/undersea_object_18.png,Undersea,object,si,stimuli/integrated/jungle_a_undersea_object_18.jpg,p,0,0.4532310409704223,None,,,,0,0,0,0,0,3,3,3,,,,,31.043091334053315,,,,,,,,,,,,,,,,,,,,,,,,31.037794834002852,31.043091334053315,33.0104030839866,33.010478624957614,33.01999145897571,33.01999145897571,33.47763970901724,p,0,0.4532310409704223,None,33.47775262501091,33.4894998340169,34.475113624939695,,,34.511595334042795,,,,,,,,,,,550,001,,,2026-03-31_00h19.47.604,encodingtask,,2025.2.4,None,2026-03-31 00h19.47.991052 +0200,
1,4,4,0,stimuli/TESTscenes/UA_1.jpg,Undersea,Somar,stimuli/items/jungle_animal_27.png,Jungle,animal,si,stimuli/integrated/undersea_b_jungle_animal_27.jpg,p,0,0.35000983299687505,None,,,,0,0,0,0,0,4,4,4,,,,,34.511595334042795,,,,,,,,,,,,,,,,,,,,,,,,34.50620858394541,34.511595334042795,36.48679591703694,36.48688724997919,36.49200904194731,36.49200904194731,36.854983292054385,p,0,0.35000983299687505,None,36.85510854201857,36.86566925002262,37.8532594590215,,,37.89349233394023,,,,,,,,,,,550,001,,,2026-03-31_00h19.47.604,encodingtask,,2025.2.4,None,2026-03-31 00h19.47.991052 +0200,
1,5,5,0,stimuli/TESTscenes/JB_1.jpg,Jungle,Malbow,stimuli/items/jungle_object_21.png,Jungle,object,sc,stimuli/integrated/jungle_b_jungle_object_21.jpg,q,0,0.2892046240158379,None,,,,0,0,0,0,0,5,5,5,,,,,37.89349233394023,,,,,,,,,,,,,,,,,,,,,,,,37.88810099998955,37.89349233394023,39.85901654197369,39.85908299998846,39.869760249974206,39.869760249974206,40.16050308395643,q,0,0.2892046240158379,None,40.16062291699927,40.16873408399988,41.15344983397517,,,41.19372362503782,,,,,,,,,,,550,001,,,2026-03-31_00h19.47.604,encodingtask,,2025.2.4,None,2026-03-31 00h19.47.991052 +0200,
1,6,6,0,stimuli/TESTscenes/UA_1.jpg,Undersea,Somar,stimuli/items/jungle_object_2.png,Jungle,object,si,stimuli/integrated/undersea_a_jungle_object_2.jpg,q,1,0.29078212508466095,None,,,,0,0,0,0,0,6,6,6,,,,,41.19372362503782,,,,,,,,,,,,,,,,,,,,,,,,41.18828466697596,41.19372362503782,43.1698587089777,43.16995758400299,43.17622866702732,43.17622866702732,43.47194487496745,q,1,0.29078212508466095,None,43.47215399995912,43.48364308394957,44.47004625003319,,,44.507566959015094,,,,,,,,,,,550,001,,,2026-03-31_00h19.47.604,encodingtask,,2025.2.4,None,2026-03-31 00h19.47.991052 +0200,
1,7,7,0,stimuli/TESTscenes/JB_1.jpg,Jungle,Malbow,stimuli/items/jungle_animal_1.png,Jungle,animal,sc,stimuli/integrated/jungle_a_jungle_animal_1.jpg,q,0,0.43565324996598065,None,,,,0,0,0,0,0,7,7,7,,,,,44.507566959015094,,,,,,,,,,,,,,,,,,,,,,,,44.50249183399137,44.507566959015094,46.47601816698443,46.476155083975755,46.48611379205249,46.48611379205249,46.92607308400329,q,0,0.43565324996598065,None,46.926227833959274,46.93945399997756,47.92562320898287,,,47.96571358398069,,,,,,,,,,,550,001,,,2026-03-31_00h19.47.604,encodingtask,,2025.2.4,None,2026-03-31 00h19.47.991052 +0200,
1,8,8,0,stimuli/TESTscenes/UA_1.jpg,Undersea,Somar,stimuli/items/undersea_object_31.png,Undersea,object,sc,stimuli/integrated/undersea_b_undersea_object_31.jpg,q,0,0.5197997080394998,None,,,,0,0,0,0,0,8,8,8,,,,,47.96571358398069,,,,,,,,,,,,,,,,,,,,,,,,47.960510042030364,47.96571358398069,49.936754249967635,49.93698358396068,49.942867249948904,49.942867249948904,50.47050541697536,q,0,0.5197997080394998,None,50.47061616694555,50.477552916971035,51.46902266703546,,,51.50501070905011,,,,,,,,,,,550,001,,,2026-03-31_00h19.47.604,encodingtask,,2025.2.4,None,2026-03-31 00h19.47.991052 +0200,
1,9,9,0,stimuli/TESTscenes/JA_1.jpg,Jungle,Tulon,stimuli/items/undersea_object_7.png,Undersea,object,si,stimuli/integrated/jungle_b_undersea_object_7.jpg,p,0,0.30609687499236315,None,,,,0,0,0,0,0,9,9,9,,,,,51.50501070905011,,,,,,,,,,,,,,,,,,,,,,,,51.500359834055416,51.50501070905011,53.4785230839625,53.47862129204441,53.485521833994426,53.485521833994426,53.79328662494663,p,0,0.30609687499236315,None,53.79339554195758,53.80583483399823,54.79278604197316,,,54.83114608400501,,,,,,,,,,,550,001,,,2026-03-31_00h19.47.604,encodingtask,,2025.2.4,None,2026-03-31 00h19.47.991052 +0200,
1,10,10,0,stimuli/TESTscenes/JB_1.jpg,Jungle,Malbow,stimuli/items/jungle_object_28.png,Jungle,object,sc,stimuli/integrated/jungle_b_jungle_object_28.jpg,p,1,0.42106637405231595,None,,,,0,0,0,0,0,10,10,10,,,,,54.83114608400501,,,,,,,,,,,,,,,,,,,,,,,,54.825630750041455,54.83114608400501,56.79364908405114,56.793761541950516,56.801583708962426,56.801583708962426,57.227341999998316,p,1,0.42106637405231595,None,57.22746125003323,57.23879345902242,58.22504308400676,,,58.26034920895472,,,,,,,,,,,550,001,,,2026-03-31_00h19.47.604,encodingtask,,2025.2.4,None,2026-03-31 00h19.47.991052 +0200,
1,11,11,0,stimuli/TESTscenes/JA_1.jpg,Jungle,Tulon,stimuli/items/undersea_object_20.png,Undersea,object,si,stimuli/integrated/jungle_b_undersea_object_20.jpg,p,0,0.7626089579425752,None,,,,0,0,0,0,0,11,11,11,,,,,58.26034920895472,,,,,,,,,,,,,,,,,,,,,,,,58.2551328339614,58.26034920895472,60.23652174999006,60.23662833403796,60.24290375004057,60.24290375004057,61.009610292036086,p,0,0.7626089579425752,None,61.00973679195158,61.021594000048935,62.00917533400934,,,62.04542654205579,,,,,,,,,,,550,001,,,2026-03-31_00h19.47.604,encodingtask,,2025.2.4,None,2026-03-31 00h19.47.991052 +0200,
1,12,12,0,stimuli/TESTscenes/UA_1.jpg,Undersea,Somar,stimuli/items/undersea_object_33.png,Undersea,object,sc,stimuli/integrated/undersea_b_undersea_object_33.jpg,q,0,0.3039680420188233,None,,,,0,0,0,0,0,12,12,12,,,,,62.04542654205579,,,,,,,,,,,,,,,,,,,,,,,,62.04018916701898,62.04542654205579,64.01965145894792,64.01979037502315,64.02646387496497,64.02646387496497,64.33808445895556,q,0,0.3039680420188233,None,64.3382680839859,64.35308795899618,65.33697895903606,,,65.38147912500426,,,,,,,,,,,550,001,,,2026-03-31_00h19.47.604,encodingtask,,2025.2.4,None,2026-03-31 00h19.47.991052 +0200,
1,13,13,0,stimuli/TESTscenes/UB_1.jpg,Undersea,Negvi,stimuli/items/undersea_animal_28.png,Undersea,animal,sc,stimuli/integrated/undersea_a_undersea_animal_28.jpg,q,0,0.3182160829892382,None,,,,0,0,0,0,0,13,13,13,,,,,65.38147912500426,,,,,,,,,,,,,,,,,,,,,,,,65.37603766703978,65.38147912500426,67.34144495904911,67.34157420904376,67.35215320903808,67.35215320903808,67.67604183393996,q,0,0.3182160829892382,None,67.67622266698163,67.68930824997369,68.67457945900969,,,68.71563654195052,,,,,,,,,,,550,001,,,2026-03-31_00h19.47.604,encodingtask,,2025.2.4,None,2026-03-31 00h19.47.991052 +0200,
1,14,14,0,stimuli/TESTscenes/UA_1.jpg,Undersea,Somar,stimuli/items/undersea_object_37.png,Undersea,object,sc,stimuli/integrated/undersea_a_undersea_object_37.jpg,q,0,0.3479037079960108,None,,,,0,0,0,0,0,14,14,14,,,,,68.71563654195052,,,,,,,,,,,,,,,,,,,,,,,,68.7101923340233,68.71563654195052,70.67674558400176,70.67683004203718,70.68638312502299,70.68638312502299,71.03830033401027,q,0,0.3479037079960108,None,71.03846700000577,71.04969270899892,72.03731212497223,,,72.07825683394913,,,,,,,,,,,550,001,,,2026-03-31_00h19.47.604,encodingtask,,2025.2.4,None,2026-03-31 00h19.47.991052 +0200,
1,15,15,0,stimuli/TESTscenes/JA_1.jpg,Jungle,Tulon,stimuli/items/undersea_object_5.png,Undersea,object,si,stimuli/integrated/jungle_b_undersea_object_5.jpg,None,0,,,,,,0,0,0,0,0,15,15,15,,,,,72.07825683394913,,,,,,,,,,,,,,,,,,,,,,,,72.07297924999148,72.07825683394913,74.04148283402901,74.0416228750255,74.05311529198661,74.05311529198661,75.03687116701622,None,0,,,75.03706004202832,75.04283629194833,76.03684833401348,75.04283629194833,75.04283629194833,76.07639254198875,,,,,,,,,,,550,001,,,2026-03-31_00h19.47.604,encodingtask,,2025.2.4,None,2026-03-31 00h19.47.991052 +0200,
1,16,16,0,stimuli/TESTscenes/JB_1.jpg,Jungle,Malbow,stimuli/items/jungle_object_1.png,Jungle,object,sc,stimuli/integrated/jungle_a_jungle_object_1.jpg,q,0,0.28647904098033905,None,,,,0,0,0,0,0,16,16,16,,,,,76.07639254198875,,,,,,,,,,,,,,,,,,,,,,,,76.07084695901722,76.07639254198875,78.04207008401863,78.04215337499045,78.05271029204596,78.05271029204596,78.34384095901623,q,0,0.28647904098033905,None,78.34393474995159,78.35555974999443,79.34252329193987,,,79.39001175004523,,,,,,,,,,,550,001,,,2026-03-31_00h19.47.604,encodingtask,,2025.2.4,None,2026-03-31 00h19.47.991052 +0200,
1,17,17,0,stimuli/TESTscenes/UB_1.jpg,Undersea,Negvi,stimuli/items/jungle_object_15.png,Jungle,object,si,stimuli/integrated/undersea_a_jungle_object_15.jpg,p,0,0.6333582490915433,None,,,,0,0,0,0,0,17,17,17,,,,,79.39001175004523,,,,,,,,,,,,,,,,,,,,,,,,79.38169495901093,79.39001175004523,81.3532889590133,81.35340187500697,81.35936574998777,81.35936574998777,82.0044508749852,p,0,0.6333582490915433,None,82.00458304199856,82.01541633403394,83.00327337498311,,,83.04435920901597,,,,,,,,,,,550,001,,,2026-03-31_00h19.47.604,encodingtask,,2025.2.4,None,2026-03-31 00h19.47.991052 +0200,
1,18,18,0,stimuli/TESTscenes/UA_1.jpg,Undersea,Somar,stimuli/items/jungle_object_38.png,Jungle,object,si,stimuli/integrated/undersea_a_jungle_object_38.jpg,p,0,0.5799532079836354,None,,,,0,0,0,0,0,18,18,18,,,,,83.04435920901597,,,,,,,,,,,,,,,,,,,,,,,,83.0390970420558,83.04435920901597,85.00926941703074,85.00935049995314,85.01970841700677,85.01970841700677,85.60483025002759,p,0,0.5799532079836354,None,85.60506566695403,85.6164726249408,86.60322579194326,,,86.64109479205217,,,,,,,,,,,550,001,,,2026-03-31_00h19.47.604,encodingtask,,2025.2.4,None,2026-03-31 00h19.47.991052 +0200,
1,19,19,0,stimuli/TESTscenes/UB_1.jpg,Undersea,Negvi,stimuli/items/undersea_animal_19.png,Undersea,animal,sc,stimuli/integrated/undersea_a_undersea_animal_19.jpg,p,1,0.338853374007158,None,,,,0,0,0,0,0,19,19,19,,,,,86.64109479205217,,,,,,,,,,,,,,,,,,,,,,,,86.63584004202858,86.64109479205217,88.60884733404964,88.60891737497877,88.61971741705202,88.61971741705202,88.97136779199354,p,1,0.338853374007158,None,88.97156658396125,88.98264499998186,89.96990270901006,,,90.0091358339414,,,,,,,,,,,550,001,,,2026-03-31_00h19.47.604,encodingtask,,2025.2.4,None,2026-03-31 00h19.47.991052 +0200,
1,20,20,0,stimuli/TESTscenes/JB_1.jpg,Jungle,Malbow,stimuli/items/undersea_animal_5.png,Undersea,animal,si,stimuli/integrated/jungle_b_undersea_animal_5.jpg,None,0,,,,,,0,0,0,0,0,20,20,20,,,,,90.0091358339414,,,,,,,,,,,,,,,,,,,,,,,,90.00373295904137,90.0091358339414,91.97587429196574,91.9759689590428,91.98633112502284,91.98633112502284,92.9695915839402,None,0,,,92.96973879204597,92.97508841694798,93.95870475005358,92.97508841694798,92.97508841694798,93.99839612504002,,,,,,,,,,,550,001,,,2026-03-31_00h19.47.604,encodingtask,,2025.2.4,None,2026-03-31 00h19.47.991052 +0200,
1,21,21,0,stimuli/TESTscenes/UA_1.jpg,Undersea,Somar,stimuli/items/jungle_animal_19.png,Jungle,animal,si,stimuli/integrated/undersea_b_jungle_animal_19.jpg,p,0,0.3725872499635443,None,,,,0,0,0,0,0,21,21,21,,,,,93.99839612504002,,,,,,,,,,,,,,,,,,,,,,,,93.99329583405051,93.99839612504002,95.97471845895052,95.974809583975,95.98578200000338,95.98578200000338,96.35994191700593,p,0,0.3725872499635443,None,96.36008179199416,96.37200295901857,97.35796399996616,,,97.39432049996685,,,,,,,,,,,550,001,,,2026-03-31_00h19.47.604,encodingtask,,2025.2.4,None,2026-03-31 00h19.47.991052 +0200,
1,22,22,0,stimuli/TESTscenes/JA_1.jpg,Jungle,Tulon,stimuli/items/undersea_animal_40.png,Undersea,animal,si,stimuli/integrated/jungle_b_undersea_animal_40.jpg,p,0,0.5074642490362749,None,,,,0,0,0,0,0,22,22,22,,,,,97.39432049996685,,,,,,,,,,,,,,,,,,,,,,,,97.38907929195557,97.39432049996685,99.36941420903895,99.36953449994326,99.37585624994244,99.37585624994244,99.88816183398012,p,0,0.5074642490362749,None,99.88840541697573,99.89992620900739,100.88636395893991,,,100.92584741697647,,,,,,,,,,,550,001,,,2026-03-31_00h19.47.604,encodingtask,,2025.2.4,None,2026-03-31 00h19.47.991052 +0200,
1,23,23,0,stimuli/TESTscenes/JB_1.jpg,Jungle,Malbow,stimuli/items/undersea_object_2.png,Undersea,object,si,stimuli/integrated/jungle_b_undersea_object_2.jpg,p,0,0.6229100830387324,None,,,,0,0,0,0,0,23,23,23,,,,,100.92584741697647,,,,,,,,,,,,,,,,,,,,,,,,100.92050345905591,100.92584741697647,102.8919872919796,102.89207454200368,102.90330808400176,102.90330808400176,103.53804083401337,p,0,0.6229100830387324,None,103.53821070899721,103.55015608400572,104.53629995894153,,,104.5737202919554,,,,,,,,,,,550,001,,,2026-03-31_00h19.47.604,encodingtask,,2025.2.4,None,2026-03-31 00h19.47.991052 +0200,
1,24,24,0,stimuli/TESTscenes/UA_1.jpg,Undersea,Somar,stimuli/items/jungle_object_8.png,Jungle,object,si,stimuli/integrated/undersea_b_jungle_object_8.jpg,p,0,0.2955844160169363,None,,,,0,0,0,0,0,24,24,24,,,,,104.5737202919554,,,,,,,,,,,,,,,,,,,,,,,,104.5683581669582,104.5737202919554,106.54237766703591,106.5424531250028,106.55242229194846,106.55242229194846,106.85497541702352,p,0,0.2955844160169363,None,106.85514374997001,106.8667777919909,107.8530268339673,,,107.89272933395114,,,,,,,,,,,550,001,,,2026-03-31_00h19.47.604,encodingtask,,2025.2.4,None,2026-03-31 00h19.47.991052 +0200,
1,25,25,0,stimuli/TESTscenes/JA_1.jpg,Jungle,Tulon,stimuli/items/undersea_animal_7.png,Undersea,animal,si,stimuli/integrated/jungle_a_undersea_animal_7.jpg,p,0,0.35504549997858703,None,,,,0,0,0,0,0,25,25,25,,,,,107.89272933395114,,,,,,,,,,,,,,,,,,,,,,,,107.88725916703697,107.89272933395114,109.85859104199335,109.85867337498348,109.86901120899711,109.86901120899711,110.22705179196782,p,0,0.35504549997858703,None,110.22720433399081,110.23896520899143,111.2254766250262,,,111.26337804202922,,,,,,,,,,,550,001,,,2026-03-31_00h19.47.604,encodingtask,,2025.2.4,None,2026-03-31 00h19.47.991052 +0200,
1,26,26,0,stimuli/TESTscenes/UB_1.jpg,Undersea,Negvi,stimuli/items/undersea_animal_14.png,Undersea,animal,sc,stimuli/integrated/undersea_b_undersea_animal_14.jpg,p,1,0.2605157910147682,None,,,,0,0,0,0,0,26,26,26,,,,,111.26337804202922,,,,,,,,,,,,,,,,,,,,,,,,111.25811579194851,111.26337804202922,113.23595041700173,113.2360744170146,113.24135579203721,113.24135579203721,113.50424320902675,p,1,0.2605157910147682,None,113.50438900000881,113.51582091697492,114.50297266698908,,,114.54026679194067,,,,,,,,,,,550,001,,,2026-03-31_00h19.47.604,encodingtask,,2025.2.4,None,2026-03-31 00h19.47.991052 +0200,
1,27,27,0,stimuli/TESTscenes/JB_1.jpg,Jungle,Malbow,stimuli/items/jungle_animal_41.png,Jungle,animal,sc,stimuli/integrated/jungle_b_jungle_animal_41.jpg,p,1,0.36077045800630003,None,,,,0,0,0,0,0,27,27,27,,,,,114.54026679194067,,,,,,,,,,,,,,,,,,,,,,,,114.53519933403004,114.54026679194067,116.50897691701539,116.50905983394478,116.5190862499876,116.5190862499876,116.88706824998371,p,1,0.36077045800630003,None,116.88717754196841,116.8980091670528,117.88610854197759,,,117.92398920899723,,,,,,,,,,,550,001,,,2026-03-31_00h19.47.604,encodingtask,,2025.2.4,None,2026-03-31 00h19.47.991052 +0200,
1,28,28,0,stimuli/TESTscenes/JA_1.jpg,Jungle,Tulon,stimuli/items/jungle_animal_28.png,Jungle,animal,sc,stimuli/integrated/jungle_b_jungle_animal_28.jpg,q,0,0.3402901249937713,None,,,,0,0,0,0,0,28,28,28,,,,,117.92398920899723,,,,,,,,,,,,,,,,,,,,,,,,117.91877558396664,117.92398920899723,119.89198104199022,119.8920665839687,119.90238141699228,119.90238141699228,120.25478558405302,q,0,0.3402901249937713,None,120.25500679202378,120.26661283394787,121.253201500047,,,121.29379354196135,,,,,,,,,,,550,001,,,2026-03-31_00h19.47.604,encodingtask,,2025.2.4,None,2026-03-31 00h19.47.991052 +0200,
1,29,29,0,stimuli/TESTscenes/UA_1.jpg,Undersea,Somar,stimuli/items/undersea_animal_17.png,Undersea,animal,sc,stimuli/integrated/undersea_a_undersea_animal_17.jpg,q,0,0.4686561659909785,None,,,,0,0,0,0,0,29,29,29,,,,,121.29379354196135,,,,,,,,,,,,,,,,,,,,,,,,121.28858608403243,121.29379354196135,123.25909733399749,123.25918358401395,123.26890162494965,123.26890162494965,123.74292145902291,q,0,0.4686561659909785,None,123.74305879196618,123.75531270902138,124.74212587496731,,,124.77981450001244,,,,,,,,,,,550,001,,,2026-03-31_00h19.47.604,encodingtask,,2025.2.4,None,2026-03-31 00h19.47.991052 +0200,
1,30,30,0,stimuli/TESTscenes/JA_1.jpg,Jungle,Tulon,stimuli/items/jungle_object_18.png,Jungle,object,sc,stimuli/integrated/jungle_a_jungle_object_18.jpg,q,0,0.8018604989629239,None,,,,0,0,0,0,0,30,30,30,,,,,124.77981450001244,,,,,,,,,,,,,,,,,,,,,,,,124.77458145900164,124.77981450001244,126.75257787504233,126.7527127499925,126.75869879196398,126.75869879196398,127.57110216701403,q,0,0.8018604989629239,None,127.57127216702793,127.58294512494467,128.5692628750112,,,128.6066389590269,,,,,,,,,,,550,001,,,2026-03-31_00h19.47.604,encodingtask,,2025.2.4,None,2026-03-31 00h19.47.991052 +0200,
1,31,31,0,stimuli/TESTscenes/JB_1.jpg,Jungle,Malbow,stimuli/items/undersea_object_24.png,Undersea,object,si,stimuli/integrated/jungle_b_undersea_object_24.jpg,q,1,0.43160466698464006,None,,,,0,0,0,0,0,31,31,31,,,,,128.6066389590269,,,,,,,,,,,,,,,,,,,,,,,,128.60141550004482,128.6066389590269,130.57490274996962,130.5749832500005,130.5859214590164,130.5859214590164,131.0207904999843,q,1,0.43160466698464006,None,131.02094679197762,131.03218220896088,132.0193639169447,,,132.05774724995717,,,,,,,,,,,550,001,,,2026-03-31_00h19.47.604,encodingtask,,2025.2.4,None,2026-03-31 00h19.47.991052 +0200,
1,32,32,0,stimuli/TESTscenes/JA_1.jpg,Jungle,Tulon,stimuli/items/jungle_animal_25.png,Jungle,animal,sc,stimuli/integrated/jungle_a_jungle_animal_25.jpg,q,0,0.3218147079460323,None,,,,0,0,0,0,0,32,32,32,,,,,132.05774724995717,,,,,,,,,,,,,,,,,,,,,,,,132.052472249954,132.05774724995717,134.02572975005023,134.02581200003624,134.0356201250106,134.0356201250106,134.35899608395994,q,0,0.3218147079460323,None,134.3591132919537,134.37128695903812,135.3578670839779,,,135.39369716704823,,,,,,,,,,,550,001,,,2026-03-31_00h19.47.604,encodingtask,,2025.2.4,None,2026-03-31 00h19.47.991052 +0200,
1,33,33,0,stimuli/TESTscenes/JB_1.jpg,Jungle,Malbow,stimuli/items/undersea_object_4.png,Undersea,object,si,stimuli/integrated/jungle_a_undersea_object_4.jpg,q,1,0.40400783298537135,None,,,,0,0,0,0,0,33,33,33,,,,,135.39369716704823,,,,,,,,,,,,,,,,,,,,,,,,135.3884868749883,135.39369716704823,137.3691713749431,137.36927029199433,137.37531295896042,137.37531295896042,137.7878034999594,q,1,0.40400783298537135,None,137.7879908749601,137.79900191701017,138.78604170901235,,,138.82356950000394,,,,,,,,,,,550,001,,,2026-03-31_00h19.47.604,encodingtask,,2025.2.4,None,2026-03-31 00h19.47.991052 +0200,
1,34,34,0,stimuli/TESTscenes/UB_1.jpg,Undersea,Negvi,stimuli/items/undersea_animal_34.png,Undersea,animal,sc,stimuli/integrated/undersea_b_undersea_animal_34.jpg,q,0,0.5030218750471249,None,,,,0,0,0,0,0,34,34,34,,,,,138.82356950000394,,,,,,,,,,,,,,,,,,,,,,,,138.81841125001665,138.82356950000394,140.7920963340439,140.79218395904172,140.80224062502384,140.80224062502384,141.30987300002016,q,0,0.5030218750471249,None,141.31001549994107,141.32188695902005,142.30876041704323,,,142.34552970901132,,,,,,,,,,,550,001,,,2026-03-31_00h19.47.604,encodingtask,,2025.2.4,None,2026-03-31 00h19.47.991052 +0200,
1,35,35,0,stimuli/TESTscenes/JB_1.jpg,Jungle,Malbow,stimuli/items/jungle_object_7.png,Jungle,object,sc,stimuli/integrated/jungle_a_jungle_object_7.jpg,q,0,0.52751424908638,None,,,,0,0,0,0,0,35,35,35,,,,,142.34552970901132,,,,,,,,,,,,,,,,,,,,,,,,142.34029970900156,142.34552970901132,144.3188834999455,144.31896054197568,144.32462249998935,144.32462249998935,144.8536353339441,q,0,0.52751424908638,None,144.85378079197835,144.86459379200824,145.85263087495696,,,145.89031308400445,,,,,,,,,,,550,001,,,2026-03-31_00h19.47.604,encodingtask,,2025.2.4,None,2026-03-31 00h19.47.991052 +0200,
1,36,36,0,stimuli/TESTscenes/UA_1.jpg,Undersea,Somar,stimuli/items/jungle_animal_3.png,Jungle,animal,si,stimuli/integrated/undersea_a_jungle_animal_3.jpg,None,0,,,,,,0,0,0,0,0,36,36,36,,,,,145.89031308400445,,,,,,,,,,,,,,,,,,,,,,,,145.88519716705196,145.89031308400445,147.85838695894927,147.8584738339996,147.86875837494154,147.86875837494154,148.85248074994888,None,0,,,148.85262383404188,148.8580141250277,149.8419617919717,148.8580141250277,148.8580141250277,149.8783093340462,,,,,,,,,,,550,001,,,2026-03-31_00h19.47.604,encodingtask,,2025.2.4,None,2026-03-31 00h19.47.991052 +0200,
1,37,37,0,stimuli/TESTscenes/UB_1.jpg,Undersea,Negvi,stimuli/items/jungle_animal_18.png,Jungle,animal,si,stimuli/integrated/undersea_b_jungle_animal_18.jpg,q,1,0.5682824579998851,None,,,,0,0,0,0,0,37,37,37,,,,,149.8783093340462,,,,,,,,,,,,,,,,,,,,,,,,149.87322624993976,149.8783093340462,151.8585333749652,151.8586196670076,151.86866554198787,151.86866554198787,152.44311583403032,q,1,0.5682824579998851,None,152.44322741695214,152.4551965839928,153.44088066695258,,,153.4766830840381,,,,,,,,,,,550,001,,,2026-03-31_00h19.47.604,encodingtask,,2025.2.4,None,2026-03-31 00h19.47.991052 +0200,
1,38,38,0,stimuli/TESTscenes/UA_1.jpg,Undersea,Somar,stimuli/items/undersea_animal_22.png,Undersea,animal,sc,stimuli/integrated/undersea_b_undersea_animal_22.jpg,None,0,,,,,,0,0,0,0,0,38,38,38,,,,,153.4766830840381,,,,,,,,,,,,,,,,,,,,,,,,153.47150391701143,153.4766830840381,155.45216308394447,155.45223358401563,155.4578126249835,155.4578126249835,156.44282962498255,None,0,,,156.44292708404828,156.4544304170413,157.44186341704335,156.4544304170413,156.4544304170413,157.47838862496428,,,,,,,,,,,550,001,,,2026-03-31_00h19.47.604,encodingtask,,2025.2.4,None,2026-03-31 00h19.47.991052 +0200,
1,39,39,0,stimuli/TESTscenes/UB_1.jpg,Undersea,Negvi,stimuli/items/jungle_animal_42.png,Jungle,animal,si,stimuli/integrated/undersea_a_jungle_animal_42.jpg,None,0,,,,,,0,0,0,0,0,39,39,39,,,,,157.47838862496428,,,,,,,,,,,,,,,,,,,,,,,,157.47319100005552,157.47838862496428,159.45232508401386,159.45242295903154,159.45865308400244,159.45865308400244,160.45218045904767,None,0,,,160.45231433399022,160.45802308397833,161.44124924996868,,,161.4770434589591,,,,,,,,,,,550,001,,,2026-03-31_00h19.47.604,encodingtask,,2025.2.4,None,2026-03-31 00h19.47.991052 +0200,
1,40,40,0,stimuli/TESTscenes/JA_1.jpg,Jungle,Tulon,stimuli/items/undersea_animal_38.png,Undersea,animal,si,stimuli/integrated/jungle_a_undersea_animal_38.jpg,q,1,0.33624799898825586,None,,,,0,0,0,0,0,40,40,40,,,,,161.4770434589591,,,,,,,,,,,,,,,,,,,,,,,,161.47205437498633,161.4770434589591,163.452344374964,163.4524238749873,163.4583100839518,163.4583100839518,163.80374058394227,q,1,0.33624799898825586,None,163.80386041698512,163.81494787498377,164.80268095899373,,,164.8406210419489,,,,,,,,,,,550,001,,,2026-03-31_00h19.47.604,encodingtask,,2025.2.4,None,2026-03-31 00h19.47.991052 +0200,
1,41,41,0,stimuli/TESTscenes/UA_1.jpg,Undersea,Somar,stimuli/items/jungle_animal_45.png,Jungle,animal,si,stimuli/integrated/undersea_a_jungle_animal_45.jpg,q,1,0.5555468330858275,None,,,,0,0,0,0,0,41,41,41,,,,,164.8406210419489,,,,,,,,,,,,,,,,,,,,,,,,164.83548991696443,164.8406210419489,166.80861512501724,166.8086957919877,166.81864924996626,166.81864924996626,167.37619524996262,q,1,0.5555468330858275,None,167.37630920903757,167.3879702920094,168.37460737500805,,,168.40937133401167,,,,,,,,,,,550,001,,,2026-03-31_00h19.47.604,encodingtask,,2025.2.4,None,2026-03-31 00h19.47.991052 +0200,
1,42,42,0,stimuli/TESTscenes/JB_1.jpg,Jungle,Malbow,stimuli/items/undersea_animal_36.png,Undersea,animal,si,stimuli/integrated/jungle_a_undersea_animal_36.jpg,q,1,0.578807833022438,None,,,,0,0,0,0,0,42,42,42,,,,,168.40937133401167,,,,,,,,,,,,,,,,,,,,,,,,168.40429558395408,168.40937133401167,170.3856635419652,170.38573924999218,170.39130745898,170.39130745898,170.97591108398046,q,1,0.578807833022438,None,170.97601958399173,170.98802783398423,171.97517254203558,,,172.01266129198484,,,,,,,,,,,550,001,,,2026-03-31_00h19.47.604,encodingtask,,2025.2.4,None,2026-03-31 00h19.47.991052 +0200,
1,43,43,0,stimuli/TESTscenes/JA_1.jpg,Jungle,Tulon,stimuli/items/jungle_object_31.png,Jungle,object,sc,stimuli/integrated/jungle_b_jungle_object_31.jpg,q,0,0.6337244579335675,None,,,,0,0,0,0,0,43,43,43,,,,,172.01266129198484,,,,,,,,,,,,,,,,,,,,,,,,172.0074922919739,172.01266129198484,173.98556137504056,173.98565933399368,173.99175120901782,173.99175120901782,174.63743729202542,q,0,0.6337244579335675,None,174.63759183394723,174.64866112498567,175.63565112499055,,,175.67332158400677,,,,,,,,,,,550,001,,,2026-03-31_00h19.47.604,encodingtask,,2025.2.4,None,2026-03-31 00h19.47.991052 +0200,
1,44,44,0,stimuli/TESTscenes/UB_1.jpg,Undersea,Negvi,stimuli/items/jungle_animal_36.png,Jungle,animal,si,stimuli/integrated/undersea_b_jungle_animal_36.jpg,q,1,0.412199915968813,None,,,,0,0,0,0,0,44,44,44,,,,,175.67332158400677,,,,,,,,,,,,,,,,,,,,,,,,175.6681133749662,175.67332158400677,177.64148150000256,177.6415601669578,177.6517529169796,177.6517529169796,178.0707758750068,q,1,0.412199915968813,None,178.0709530840395,178.0823084169533,179.06911545898765,,,179.10960854194127,,,,,,,,,,,550,001,,,2026-03-31_00h19.47.604,encodingtask,,2025.2.4,None,2026-03-31 00h19.47.991052 +0200,
1,45,45,0,stimuli/TESTscenes/UA_1.jpg,Undersea,Somar,stimuli/items/undersea_animal_3.png,Undersea,animal,sc,stimuli/integrated/undersea_b_undersea_animal_3.jpg,q,0,0.26559324900154024,None,,,,0,0,0,0,0,45,45,45,,,,,179.10960854194127,,,,,,,,,,,,,,,,,,,,,,,,179.10418870905414,179.10960854194127,181.07526225002948,181.07534516695887,181.08510754199233,181.08510754199233,181.3541049589403,q,0,0.26559324900154024,None,181.35427566699218,181.36587679199874,182.35272012499627,,,182.39191341702826,,,,,,,,,,,550,001,,,2026-03-31_00h19.47.604,encodingtask,,2025.2.4,None,2026-03-31 00h19.47.991052 +0200,
1,46,46,0,stimuli/TESTscenes/UB_1.jpg,Undersea,Negvi,stimuli/items/jungle_object_25.png,Jungle,object,si,stimuli/integrated/undersea_a_jungle_object_25.jpg,q,1,0.33520679106004536,None,,,,0,0,0,0,0,46,46,46,,,,,182.39191341702826,,,,,,,,,,,,,,,,,,,,,,,,182.3865320419427,182.39191341702826,184.3585493339924,184.35865020903293,184.36836245900486,184.36836245900486,184.7092878340045,q,1,0.33520679106004536,None,184.70941220899113,184.72179216705263,185.70881933404598,,,185.74583875003736,,,,,,,,,,,550,001,,,2026-03-31_00h19.47.604,encodingtask,,2025.2.4,None,2026-03-31 00h19.47.991052 +0200,
1,47,47,0,stimuli/TESTscenes/JA_1.jpg,Jungle,Tulon,stimuli/items/undersea_object_25.png,Undersea,object,si,stimuli/integrated/jungle_a_undersea_object_25.jpg,q,1,0.3910129579016939,None,,,,0,0,0,0,0,47,47,47,,,,,185.74583875003736,,,,,,,,,,,,,,,,,,,,,,,,185.7405562089989,185.74583875003736,187.71885900001507,187.71893408393953,187.72468904196285,187.72468904196285,188.12021141697187,q,1,0.3910129579016939,None,188.12038683402352,188.13215741701424,189.11889333394356,,,189.1563940839842,,,,,,,,,,,550,001,,,2026-03-31_00h19.47.604,encodingtask,,2025.2.4,None,2026-03-31 00h19.47.991052 +0200,
1,48,48,0,stimuli/TESTscenes/UB_1.jpg,Undersea,Negvi,stimuli/items/jungle_object_24.png,Jungle,object,si,stimuli/integrated/undersea_a_jungle_object_24.jpg,q,1,0.38033608300611377,None,,,,0,0,0,0,0,48,48,48,,,,,189.1563940839842,,,,,,,,,,,,,,,,,,,,,,,,189.15111700003035,189.1563940839842,191.1246599999722,191.12472966697533,191.13518687500618,191.13518687500618,191.5201423340477,q,1,0.38033608300611377,None,191.52030650002416,191.5320610839408,192.51898279204033,,,192.556406000047,,,,,,,,,,,550,001,,,2026-03-31_00h19.47.604,encodingtask,,2025.2.4,None,2026-03-31 00h19.47.991052 +0200,
1,49,49,0,stimuli/TESTscenes/JA_1.jpg,Jungle,Tulon,stimuli/items/undersea_animal_2.png,Undersea,animal,si,stimuli/integrated/jungle_a_undersea_animal_2.jpg,q,1,0.5674942079931498,None,,,,0,0,0,0,0,49,49,49,,,,,192.556406000047,,,,,,,,,,,,,,,,,,,,,,,,192.5512042089831,192.556406000047,194.5251755840145,194.52525133395102,194.53501733404119,194.53501733404119,195.10997929202858,q,1,0.5674942079931498,None,195.1101048749406,195.12175291695166,196.10766774998046,,,196.14517416700255,,,,,,,,,,,550,001,,,2026-03-31_00h19.47.604,encodingtask,,2025.2.4,None,2026-03-31 00h19.47.991052 +0200,
1,50,50,0,stimuli/TESTscenes/UB_1.jpg,Undersea,Negvi,stimuli/items/undersea_object_1.png,Undersea,object,sc,stimuli/integrated/undersea_a_undersea_object_1.jpg,q,0,0.39450395794119686,None,,,,0,0,0,0,0,50,50,50,,,,,196.14517416700255,,,,,,,,,,,,,,,,,,,,,,,,196.13992687501013,196.14517416700255,198.11877170903608,198.1188660840271,198.12489029194694,198.12489029194694,198.52674645895604,q,0,0.39450395794119686,None,198.5268629170023,198.53800529194996,199.52485391695518,,,199.56484183401335,,,,,,,,,,,550,001,,,2026-03-31_00h19.47.604,encodingtask,,2025.2.4,None,2026-03-31 00h19.47.991052 +0200,
1,51,51,0,stimuli/TESTscenes/UA_1.jpg,Undersea,Somar,stimuli/items/jungle_object_32.png,Jungle,object,si,stimuli/integrated/undersea_a_jungle_object_32.jpg,q,1,0.5587576660327613,None,,,,0,0,0,0,0,51,51,51,,,,,199.56484183401335,,,,,,,,,,,,,,,,,,,,,,,,199.55966137500945,199.56484183401335,201.53565991704818,201.53581787494477,201.54250191699248,201.54250191699248,202.1036839169683,q,1,0.5587576660327613,None,202.1038113749819,202.1149109590333,203.102514166967,,,203.1397234169999,,,,,,,,,,,550,001,,,2026-03-31_00h19.47.604,encodingtask,,2025.2.4,None,2026-03-31 00h19.47.991052 +0200,
1,52,52,0,stimuli/TESTscenes/JA_1.jpg,Jungle,Tulon,stimuli/items/undersea_object_3.png,Undersea,object,si,stimuli/integrated/jungle_a_undersea_object_3.jpg,None,0,,,,,,0,0,0,0,0,52,52,52,,,,,203.1397234169999,,,,,,,,,,,,,,,,,,,,,,,,203.13449270895217,203.1397234169999,205.1085923339706,205.1086756249424,205.118361833971,205.118361833971,206.10194754204713,None,0,,,206.1020889589563,206.10732724994887,207.09061537496746,206.10732724994887,206.10732724994887,207.1257739169523,,,,,,,,,,,550,001,,,2026-03-31_00h19.47.604,encodingtask,,2025.2.4,None,2026-03-31 00h19.47.991052 +0200,
1,53,53,0,stimuli/TESTscenes/UA_1.jpg,Undersea,Somar,stimuli/items/undersea_animal_11.png,Undersea,animal,sc,stimuli/integrated/undersea_a_undersea_animal_11.jpg,q,0,0.49252870795316994,None,,,,0,0,0,0,0,53,53,53,,,,,207.1257739169523,,,,,,,,,,,,,,,,,,,,,,,,207.12063212494832,207.1257739169523,209.10702845896594,209.1070999170188,209.1182810839964,209.1182810839964,209.61961375002284,q,0,0.49252870795316994,None,209.6197587089846,209.6307234170381,210.6189282919513,,,210.65594395902008,,,,,,,,,,,550,001,,,2026-03-31_00h19.47.604,encodingtask,,2025.2.4,None,2026-03-31 00h19.47.991052 +0200,
1,54,54,0,stimuli/TESTscenes/JB_1.jpg,Jungle,Malbow,stimuli/items/undersea_animal_10.png,Undersea,animal,si,stimuli/integrated/jungle_b_undersea_animal_10.jpg,q,1,0.4314577500335872,None,,,,0,0,0,0,0,54,54,54,,,,,210.65594395902008,,,,,,,,,,,,,,,,,,,,,,,,210.65083362499718,210.65594395902008,212.62485833396204,212.62492616695818,212.63536499999464,212.63536499999464,213.07075020903721,q,1,0.4314577500335872,None,213.07092041696887,213.08207733405288,214.0689003339503,,,214.1099672090495,,,,,,,,,,,550,001,,,2026-03-31_00h19.47.604,encodingtask,,2025.2.4,None,2026-03-31 00h19.47.991052 +0200,
1,55,55,0,stimuli/TESTscenes/UA_1.jpg,Undersea,Somar,stimuli/items/undersea_object_9.png,Undersea,object,sc,stimuli/integrated/undersea_b_undersea_object_9.jpg,q,0,0.35255108296405524,None,,,,0,0,0,0,0,55,55,55,,,,,214.1099672090495,,,,,,,,,,,,,,,,,,,,,,,,214.1048270839965,214.1099672090495,216.07371770904865,216.07377925002947,216.0851544169709,216.0851544169709,216.4429172920063,q,0,0.35255108296405524,None,216.44304804201238,216.45448395900894,217.4409271669574,,,217.47912458400242,,,,,,,,,,,550,001,,,2026-03-31_00h19.47.604,encodingtask,,2025.2.4,None,2026-03-31 00h19.47.991052 +0200,
1,56,56,0,stimuli/TESTscenes/JB_1.jpg,Jungle,Malbow,stimuli/items/undersea_animal_4.png,Undersea,animal,si,stimuli/integrated/jungle_b_undersea_animal_4.jpg,None,0,,,,,,0,0,0,0,0,56,56,56,,,,,217.47912458400242,,,,,,,,,,,,,,,,,,,,,,,,217.47407904197462,217.47912458400242,219.45185275003314,219.45194787497167,219.45806420897134,219.45806420897134,220.44159349997062,None,0,,,220.4417058340041,220.4514760420425,221.4354795840336,220.4514760420425,220.4514760420425,221.47332795895636,,,,,,,,,,,550,001,,,2026-03-31_00h19.47.604,encodingtask,,2025.2.4,None,2026-03-31 00h19.47.991052 +0200,
1,57,57,0,stimuli/TESTscenes/UB_1.jpg,Undersea,Negvi,stimuli/items/undersea_object_22.png,Undersea,object,sc,stimuli/integrated/undersea_b_undersea_object_22.jpg,q,0,0.4973443750059232,None,,,,0,0,0,0,0,57,57,57,,,,,221.47332795895636,,,,,,,,,,,,,,,,,,,,,,,,221.46824704203755,221.47332795895636,223.4518091250211,223.4519135840237,223.45794229197782,223.45794229197782,223.95863550005015,q,0,0.4973443750059232,None,223.95874875003938,223.9708387090359,224.95827379194088,,,224.99489716696553,,,,,,,,,,,550,001,,,2026-03-31_00h19.47.604,encodingtask,,2025.2.4,None,2026-03-31 00h19.47.991052 +0200,
1,58,58,0,stimuli/TESTscenes/JB_1.jpg,Jungle,Malbow,stimuli/items/jungle_animal_16.png,Jungle,animal,sc,stimuli/integrated/jungle_b_jungle_animal_16.jpg,q,0,0.6219607079401612,None,,,,0,0,0,0,0,58,58,58,,,,,224.99489716696553,,,,,,,,,,,,,,,,,,,,,,,,224.98980912496336,224.99489716696553,226.96851704199798,226.96860575000755,226.97505879204255,226.97505879204255,227.60343491705135,q,0,0.6219607079401612,None,227.60358279198408,227.61451166705228,228.60220354201738,,,228.6398012089776,,,,,,,,,,,550,001,,,2026-03-31_00h19.47.604,encodingtask,,2025.2.4,None,2026-03-31 00h19.47.991052 +0200,
1,59,59,0,stimuli/TESTscenes/UB_1.jpg,Undersea,Negvi,stimuli/items/jungle_object_13.png,Jungle,object,si,stimuli/integrated/undersea_a_jungle_object_13.jpg,None,0,,,,,,0,0,0,0,0,59,59,59,,,,,228.6398012089776,,,,,,,,,,,,,,,,,,,,,,,,228.63471987494268,228.6398012089776,230.6080545419827,230.6081380000105,230.61822170903906,230.61822170903906,231.60218958405312,None,0,,,231.602363458951,231.60801774996798,232.59118945896626,231.60801774996798,231.60801774996798,232.62743904197123,,,,,,,,,,,550,001,,,2026-03-31_00h19.47.604,encodingtask,,2025.2.4,None,2026-03-31 00h19.47.991052 +0200,
1,60,60,0,stimuli/TESTscenes/JA_1.jpg,Jungle,Tulon,stimuli/items/jungle_animal_17.png,Jungle,animal,sc,stimuli/integrated/jungle_b_jungle_animal_17.jpg,q,0,0.5165422910358757,None,,,,0,0,0,0,0,60,60,60,,,,,232.62743904197123,,,,,,,,,,,,,,,,,,,,,,,,232.62231324997265,232.62743904197123,234.60804162500426,234.60811441694386,234.6181050420273,234.6181050420273,235.13659479201306,q,0,0.5165422910358757,None,235.13676620903425,235.14785241696518,236.13524333399255,,,236.17649841704406,,,,,,,,,,,550,001,,,2026-03-31_00h19.47.604,encodingtask,,2025.2.4,None,2026-03-31 00h19.47.991052 +0200,
1,61,61,0,stimuli/TESTscenes/UB_1.jpg,Undersea,Negvi,stimuli/items/undersea_object_36.png,Undersea,object,sc,stimuli/integrated/undersea_b_undersea_object_36.jpg,q,0,0.571546082966961,None,,,,0,0,0,0,0,61,61,61,,,,,236.17649841704406,,,,,,,,,,,,,,,,,,,,,,,,236.17123079195153,236.17649841704406,238.14130416698754,238.14138320903294,238.15170533396304,238.15170533396304,238.7259257090045,q,0,0.571546082966961,None,238.7260756250471,238.73773362499196,239.7245854169596,,,239.76199495897163,,,,,,,,,,,550,001,,,2026-03-31_00h19.47.604,encodingtask,,2025.2.4,None,2026-03-31 00h19.47.991052 +0200,
1,62,62,0,stimuli/TESTscenes/JB_1.jpg,Jungle,Malbow,stimuli/items/jungle_object_39.png,Jungle,object,sc,stimuli/integrated/jungle_b_jungle_object_39.jpg,q,0,0.4605025000637397,None,,,,0,0,0,0,0,62,62,62,,,,,239.76199495897163,,,,,,,,,,,,,,,,,,,,,,,,239.75675304199103,239.76199495897163,241.73539895901922,241.73550083395094,241.7417124590138,241.7417124590138,242.20967658399604,q,0,0.4605025000637397,None,242.20979250001255,242.22109983395785,243.20716262503993,,,243.2473957920447,,,,,,,,,,,550,001,,,2026-03-31_00h19.47.604,encodingtask,,2025.2.4,None,2026-03-31 00h19.47.991052 +0200,
1,63,63,0,stimuli/TESTscenes/UB_1.jpg,Undersea,Negvi,stimuli/items/jungle_animal_13.png,Jungle,animal,si,stimuli/integrated/undersea_a_jungle_animal_13.jpg,q,1,0.65979512501508,None,,,,0,0,0,0,0,63,63,63,,,,,243.2473957920447,,,,,,,,,,,,,,,,,,,,,,,,243.24223329196684,243.2473957920447,245.21848499996122,245.21864966698922,245.2243929170072,245.2243929170072,245.88600862503517,q,1,0.65979512501508,None,245.88611545902677,245.8969430839643,246.88496083405335,,,246.92343566694763,,,,,,,,,,,550,001,,,2026-03-31_00h19.47.604,encodingtask,,2025.2.4,None,2026-03-31 00h19.47.991052 +0200,
1,64,64,0,stimuli/TESTscenes/JA_1.jpg,Jungle,Tulon,stimuli/items/jungle_object_19.png,Jungle,object,sc,stimuli/integrated/jungle_a_jungle_object_19.jpg,q,0,0.4519382909638807,None,,,,0,0,0,0,0,64,64,64,,,,,246.92343566694763,,,,,,,,,,,,,,,,,,,,,,,,246.91816574998666,246.92343566694763,248.89128670899663,248.89136687503196,248.90113287500571,248.90113287500571,249.35836845904123,q,0,0.4519382909638807,None,249.35848612501286,249.37074045895133,250.35732616705354,,,250.39425875002053,,,,,,,,,,,550,001,,,2026-03-31_00h19.47.604,encodingtask,,2025.2.4,None,2026-03-31 00h19.47.991052 +0200,
1,65,65,0,stimuli/TESTscenes/UB_1.jpg,Undersea,Negvi,stimuli/items/undersea_object_15.png,Undersea,object,sc,stimuli/integrated/undersea_a_undersea_object_15.jpg,q,0,0.8348934159148484,None,,,,0,0,0,0,0,65,65,65,,,,,250.39425875002053,,,,,,,,,,,,,,,,,,,,,,,,250.38901445898227,250.39425875002053,252.3587370419409,252.35881854197942,252.36802945903037,252.36802945903037,253.20894354197662,q,0,0.8348934159148484,None,253.20905704202596,253.2208431250183,254.20730562496465,,,254.24279604200274,,,,,,,,,,,550,001,,,2026-03-31_00h19.47.604,encodingtask,,2025.2.4,None,2026-03-31 00h19.47.991052 +0200,
1,66,66,0,stimuli/TESTscenes/JB_1.jpg,Jungle,Malbow,stimuli/items/undersea_object_17.png,Undersea,object,si,stimuli/integrated/jungle_a_undersea_object_17.jpg,None,0,,,,,,0,0,0,0,0,66,66,66,,,,,254.24279604200274,,,,,,,,,,,,,,,,,,,,,,,,254.23769433400594,254.24279604200274,256.218301084009,256.218395999982,256.2242272919975,256.2242272919975,257.2078670000192,None,0,,,257.20797579200007,257.21788641694,258.2019126670202,257.21788641694,257.21788641694,258.23914158402476,,,,,,,,,,,550,001,,,2026-03-31_00h19.47.604,encodingtask,,2025.2.4,None,2026-03-31 00h19.47.991052 +0200,
1,67,67,0,stimuli/TESTscenes/UA_1.jpg,Undersea,Somar,stimuli/items/undersea_object_35.png,Undersea,object,sc,stimuli/integrated/undersea_b_undersea_object_35.jpg,q,0,0.9420449170283973,None,,,,0,0,0,0,0,67,67,67,,,,,258.23914158402476,,,,,,,,,,,,,,,,,,,,,,,,258.2340610839892,258.23914158402476,260.21854041703045,260.2186437919736,260.2244792090496,260.2244792090496,261.1702429590514,q,0,0.9420449170283973,None,261.1704316670075,261.18220549996477,262.1687078749528,,,262.21901537501253,,,,,,,,,,,550,001,,,2026-03-31_00h19.47.604,encodingtask,,2025.2.4,None,2026-03-31 00h19.47.991052 +0200,
1,68,68,0,stimuli/TESTscenes/UB_1.jpg,Undersea,Negvi,stimuli/items/jungle_animal_21.png,Jungle,animal,si,stimuli/integrated/undersea_b_jungle_animal_21.jpg,q,1,0.5275825409917161,None,,,,0,0,0,0,0,68,68,68,,,,,262.21901537501253,,,,,,,,,,,,,,,,,,,,,,,,262.2135225839447,262.21901537501253,264.1742215839913,264.1743294999469,264.18463741696905,264.18463741696905,264.72021299996413,q,1,0.5275825409917161,None,264.7203792920336,264.73247320903465,265.7185228749877,,,265.75754124997184,,,,,,,,,,,550,001,,,2026-03-31_00h19.47.604,encodingtask,,2025.2.4,None,2026-03-31 00h19.47.991052 +0200,
1,69,69,0,stimuli/TESTscenes/JA_1.jpg,Jungle,Tulon,stimuli/items/jungle_object_5.png,Jungle,object,sc,stimuli/integrated/jungle_a_jungle_object_5.jpg,None,0,,,,,,0,0,0,0,0,69,69,69,,,,,265.75754124997184,,,,,,,,,,,,,,,,,,,,,,,,265.75210925005376,265.75754124997184,267.7244238340063,267.72448712494224,267.7344702089904,267.7344702089904,268.7183255000273,None,0,,,268.71846550004557,268.72402612504084,269.7078436249867,268.72402612504084,268.72402612504084,269.7452629590407,,,,,,,,,,,550,001,,,2026-03-31_00h19.47.604,encodingtask,,2025.2.4,None,2026-03-31 00h19.47.991052 +0200,
1,70,70,0,stimuli/TESTscenes/UB_1.jpg,Undersea,Negvi,stimuli/items/undersea_animal_27.png,Undersea,animal,sc,stimuli/integrated/undersea_a_undersea_animal_27.jpg,q,0,0.3301150829065591,None,,,,0,0,0,0,0,70,70,70,,,,,269.7452629590407,,,,,,,,,,,,,,,,,,,,,,,,269.7399474999402,269.7452629590407,271.724420750048,271.724498125026,271.7350115419831,271.7350115419831,272.0699349170318,q,0,0.3301150829065591,None,272.07007120898925,272.08154545899015,273.0682650420349,,,273.1087561249733,,,,,,,,,,,550,001,,,2026-03-31_00h19.47.604,encodingtask,,2025.2.4,None,2026-03-31 00h19.47.991052 +0200,
1,71,71,0,stimuli/TESTscenes/JB_1.jpg,Jungle,Malbow,stimuli/items/jungle_animal_11.png,Jungle,animal,sc,stimuli/integrated/jungle_b_jungle_animal_11.jpg,q,0,0.9121542080538347,None,,,,0,0,0,0,0,71,71,71,,,,,273.1087561249733,,,,,,,,,,,,,,,,,,,,,,,,273.10361049999483,273.1087561249733,275.07393375004176,275.0740182499867,275.0848352089524,275.0848352089524,276.0028447919758,q,0,0.9121542080538347,None,276.00300016696565,276.014155959012,277.0014877089998,,,277.0413812500192,,,,,,,,,,,550,001,,,2026-03-31_00h19.47.604,encodingtask,,2025.2.4,None,2026-03-31 00h19.47.991052 +0200,
1,72,72,0,stimuli/TESTscenes/UB_1.jpg,Undersea,Negvi,stimuli/items/jungle_object_4.png,Jungle,object,si,stimuli/integrated/undersea_b_jungle_object_4.jpg,None,0,,,,,,0,0,0,0,0,72,72,72,,,,,277.0413812500192,,,,,,,,,,,,,,,,,,,,,,,,277.0362138750497,277.0413812500192,279.00694508396555,279.0070257090265,279.01791245897766,279.01791245897766,280.0018254170427,None,0,,,280.0019823750481,280.0080381670268,281.00147679203656,280.0080381670268,280.0080381670268,281.0393427499803,,,,,,,,,,,550,001,,,2026-03-31_00h19.47.604,encodingtask,,2025.2.4,None,2026-03-31 00h19.47.991052 +0200,
1,73,73,0,stimuli/TESTscenes/UA_1.jpg,Undersea,Somar,stimuli/items/undersea_animal_23.png,Undersea,animal,sc,stimuli/integrated/undersea_a_undersea_animal_23.jpg,None,0,,,,,,0,0,0,0,0,73,73,73,,,,,281.0393427499803,,,,,,,,,,,,,,,,,,,,,,,,281.03413133404683,281.0393427499803,283.006670792005,283.0067399169784,283.0177577499999,283.0177577499999,284.00156695896294,None,0,,,284.00179579202086,284.00801524997223,285.0014882499818,284.00801524997223,284.00801524997223,285.0379611670505,,,,,,,,,,,550,001,,,2026-03-31_00h19.47.604,encodingtask,,2025.2.4,None,2026-03-31 00h19.47.991052 +0200,
1,74,74,0,stimuli/TESTscenes/JB_1.jpg,Jungle,Malbow,stimuli/items/undersea_animal_6.png,Undersea,animal,si,stimuli/integrated/jungle_b_undersea_animal_6.jpg,None,0,,,,,,0,0,0,0,0,74,74,74,,,,,285.0379611670505,,,,,,,,,,,,,,,,,,,,,,,,285.0327929169871,285.0379611670505,287.00773087504786,287.00779491697904,287.01769579201937,287.01769579201937,288.0016732499935,None,0,,,288.00182600005064,288.0079565839842,289.0014631670201,288.0079565839842,288.0079565839842,289.03862745896913,,,,,,,,,,,550,001,,,2026-03-31_00h19.47.604,encodingtask,,2025.2.4,None,2026-03-31 00h19.47.991052 +0200,
1,75,75,0,stimuli/TESTscenes/UB_1.jpg,Undersea,Negvi,stimuli/items/undersea_object_28.png,Undersea,object,sc,stimuli/integrated/undersea_a_undersea_object_28.jpg,None,0,,,,,,0,0,0,0,0,75,75,75,,,,,289.03862745896913,,,,,,,,,,,,,,,,,,,,,,,,289.0334435419645,289.03862745896913,291.0076738339849,291.0077573340386,291.01780358399265,291.01780358399265,292.0015325839631,None,0,,,292.0016232919879,292.00706529198214,292.9910989589989,292.00706529198214,292.00706529198214,293.02779991703574,,,,,,,,,,,550,001,,,2026-03-31_00h19.47.604,encodingtask,,2025.2.4,None,2026-03-31 00h19.47.991052 +0200,
1,76,76,0,stimuli/TESTscenes/JB_1.jpg,Jungle,Malbow,stimuli/items/jungle_animal_14.png,Jungle,animal,sc,stimuli/integrated/jungle_b_jungle_animal_14.jpg,None,0,,,,,,0,0,0,0,0,76,76,76,,,,,293.02779991703574,,,,,,,,,,,,,,,,,,,,,,,,293.0226645000512,293.02779991703574,295.00739349995274,295.007461042027,295.017480666982,295.017480666982,296.00155100005213,None,0,,,296.00169249996543,296.00697504205164,296.99102595902514,296.00697504205164,296.00697504205164,297.02749279199634,,,,,,,,,,,550,001,,,2026-03-31_00h19.47.604,encodingtask,,2025.2.4,None,2026-03-31 00h19.47.991052 +0200,
1,77,77,0,stimuli/TESTscenes/JA_1.jpg,Jungle,Tulon,stimuli/items/undersea_animal_25.png,Undersea,animal,si,stimuli/integrated/jungle_a_undersea_animal_25.jpg,None,0,,,,,,0,0,0,0,0,77,77,77,,,,,297.02749279199634,,,,,,,,,,,,,,,,,,,,,,,,297.02228187501896,297.02749279199634,299.0066001670202,299.0066860419465,299.01775083399843,299.01775083399843,300.0014283750206,None,0,,,300.0016494169831,300.0072217499837,300.99098633404355,300.0072217499837,300.0072217499837,301.02728316700086,,,,,,,,,,,550,001,,,2026-03-31_00h19.47.604,encodingtask,,2025.2.4,None,2026-03-31 00h19.47.991052 +0200,
1,78,78,0,stimuli/TESTscenes/UA_1.jpg,Undersea,Somar,stimuli/items/jungle_object_27.png,Jungle,object,si,stimuli/integrated/undersea_b_jungle_object_27.jpg,None,0,,,,,,0,0,0,0,0,78,78,78,,,,,301.02728316700086,,,,,,,,,,,,,,,,,,,,,,,,301.02232150000054,301.02728316700086,303.0084291669773,303.0085210419493,303.01893379201647,303.01893379201647,304.0066905840067,None,0,,,304.0068383340258,304.01771024998743,305.00137354200706,,,305.0432130000554,,,,,,,,,,,550,001,,,2026-03-31_00h19.47.604,encodingtask,,2025.2.4,None,2026-03-31 00h19.47.991052 +0200,
1,79,79,0,stimuli/TESTscenes/JA_1.jpg,Jungle,Tulon,stimuli/items/jungle_animal_44.png,Jungle,animal,sc,stimuli/integrated/jungle_b_jungle_animal_44.jpg,None,0,,,,,,0,0,0,0,0,79,79,79,,,,,305.0432130000554,,,,,,,,,,,,,,,,,,,,,,,,305.03758300002664,305.0432130000554,307.00761979201343,307.00769620900974,307.0179478749633,307.0179478749633,308.0014483749401,None,0,,,308.0016494169831,308.00757508398965,309.0013046669774,308.00757508398965,308.00757508398965,309.0474234999856,,,,,,,,,,,550,001,,,2026-03-31_00h19.47.604,encodingtask,,2025.2.4,None,2026-03-31 00h19.47.991052 +0200,
1,0,0,0,,,,,,,,,,,,,space,22.25055399897974,None,0,0,0,0,,,,,0,0,0,0,309.0474234999856,,,,,,,,,,,,,,,,,,,,,,,,,,,,,,,,,,,,,,,,,309.0223790840246,309.02246179198846,309.04066158400383,309.0474234999856,309.0474234999856,309.0474234999856,331.3026804589899,space,22.25055399897974,None,550,001,,,2026-03-31_00h19.47.604,encodingtask,,2025.2.4,None,2026-03-31 00h19.47.991052 +0200,
1,0,0,0,,,,,,,,,,,,,,,,0,0,0,0,,,,,,,,,,,,,,,,,,,,,,,,,,,,,,,,,,,,,,,,,,,,,,,,,,,,,,,,,,,,550,001,,,2026-03-31_00h19.47.604,encodingtask,,2025.2.4,None,2026-03-31 00h19.47.991052 +0200,
2,0,0,0,stimuli/TESTscenes/JA_1.jpg,Jungle,Tulon,stimuli/items/jungle_animal_4.png,Jungle,animal,sc,stimuli/integrated/jungle_b_jungle_animal_4.jpg,,,,,,,,0,1,1,1,0,0,0,0,,,,,331.362498417031,,,,,,,,,,,,,,,,,,,,,,331.3057170419488,331.30580929201096,331.35409062495455,331.362498417031,333.30625083402265,333.306330124964,333.31786758394446,333.31786758394446,334.3017592090182,None,0,,,334.30190162500367,334.3081405420089,,334.3081405420089,334.3081405420089,,,,,,,,,,,,,,,,,,,,,,
