run,thisN,thisTrialN,thisRepN,scene_stimulus,scene_cat,scene_label,item_stimulus,item_cat,item_type,congruency,integrated_stimulus,key_resp_congruency.keys,key_resp_congruency.corr,key_resp_congruency.rt,key_resp_congruency.duration,runs_trial.thisRepN,runs_trial.thisTrialN,runs_trial.thisN,runs_trial.thisIndex,trials.thisRepN,trials.thisTrialN,trials.thisN,trials.thisIndex,thisRow.t,notes,get_relatedness_keys.started,get_relatedness_keys.stopped,instructions_screen.started,text_instructions.started,key_welcome.started,instructions_screen.stopped,key_welcome.keys,key_welcome.rt,key_welcome.duration,instruction_keys.started,text_keys.started,key_resp_keysInst.started,instruction_keys.stopped,key_resp_keysInst.keys,key_resp_keysInst.rt,key_resp_keysInst.duration,blank2000.started,text_2.started,text_2.stopped,blank2000.stopped,get_run_stim_list.started,get_run_stim_list.stopped,integrated_scene_presentation.started,image_integrated.started,integrated_scene_presentation.stopped,congruency_response.started,text_congruency.started,key_resp_congruency.started,congruency_response.stopped,trials.key_resp_congruency.keys,trials.key_resp_congruency.corr,trials.key_resp_congruency.rt,trials.key_resp_congruency.duration,blank1000.started,text_8.started,blank1000.stopped,text_8.stopped,text_congruency.stopped,key_resp_congruency.stopped,participant,session,group,delay,date,expName,expVersion,psychopyVersion,frameRate,expStart,
,,,,,,,,,,,,,,,,,,,,,,,,,,0.011569541995413601,0.01165091700386256,,,,,,,,,,,,,,,,,,,,,,,,,,,,,,,,,,,,,,550,001,,,2026-03-30_22h27.06.691,encodingtask,,2025.2.4,None,2026-03-30 22h27.07.004782 +0200,
,,,,,,,,,,,,,,,,,,,,,,,,,,,,0.011676209047436714,0.019653334049507976,1.008118584053591,11.604889792040922,space,10.297003583051264,None,,,,,,,,,,,,,,,,,,,,,,,,,,,,,,,550,001,,,2026-03-30_22h27.06.691,encodingtask,,2025.2.4,None,2026-03-30 22h27.07.004782 +0200,
,,,,,,,,,,,,,,,,,,,,,,,,,,,,,,,,,,,11.617881834041327,11.639669875032268,11.639669875032268,13.204664209042676,space,1.553077791002579,None,,,,,,,,,,,,,,,,,,,,,,,,550,001,,,2026-03-30_22h27.06.691,encodingtask,,2025.2.4,None,2026-03-30 22h27.07.004782 +0200,
,,,,,,,,,,,,,,,,,,,,,,,,,,,,,,,,,,,,,,,,,,13.204814124968834,13.215393292019144,16.439863416948356,15.203368374961428,,,,,,,,,,,,,,,,,,,,550,001,,,2026-03-30_22h27.06.691,encodingtask,,2025.2.4,None,2026-03-30 22h27.07.004782 +0200,
1,0,0,0,stimuli/TESTscenes/JA_1.jpg,Jungle,Tulon,stimuli/items/jungle_animal_4.png,Jungle,animal,sc,stimuli/integrated/jungle_b_jungle_animal_4.jpg,q,0,0.6231179579626769,None,0,0,0,0,0,0,0,0,16.439863416948356,,,,,,,,,,,,,,,,,,,,,,15.229261500062421,15.229339709039778,16.42707929201424,16.439863416948356,17.236317208968103,17.236364334006794,17.24251612497028,17.24251612497028,17.870833541965112,q,0,0.6231179579626769,None,17.87100299994927,17.88925270899199,18.875518250046298,,,,550,001,,,2026-03-30_22h27.06.691,encodingtask,,2025.2.4,None,2026-03-30 22h27.07.004782 +0200,
1,1,1,0,stimuli/TESTscenes/UA_1.jpg,Undersea,Somar,stimuli/items/jungle_animal_29.png,Jungle,animal,si,stimuli/integrated/undersea_a_jungle_animal_29.jpg,p,0,0.3616850000107661,None,0,0,0,0,0,1,1,1,20.0553549999604,,,,,,,,,,,,,,,,,,,,,,,,20.049974333960563,20.0553549999604,20.875734584056772,20.875829791999422,20.885861917049624,20.885861917049624,21.25438541697804,p,0,0.3616850000107661,None,21.254538374952972,21.265633250004612,22.253356624976732,23.435649959021248,,,550,001,,,2026-03-30_22h27.06.691,encodingtask,,2025.2.4,None,2026-03-30 22h27.07.004782 +0200,
1,2,2,0,stimuli/TESTscenes/JA_1.jpg,Jungle,Tulon,stimuli/items/jungle_object_3.png,Jungle,object,sc,stimuli/integrated/jungle_a_jungle_object_3.jpg,p,1,0.2200673749903217,None,0,0,0,0,0,2,2,2,23.435649959021248,,,,,,,,,,,,,,,,,,,,,,,,23.425568209029734,23.435649959021248,24.25838766701054,24.25847504194826,24.26942195906304,24.26942195906304,24.493527292041108,p,1,0.2200673749903217,None,24.493637999985367,24.505099750007503,25.49212929198984,26.505510124959983,,,550,001,,,2026-03-30_22h27.06.691,encodingtask,,2025.2.4,None,2026-03-30 22h27.07.004782 +0200,
1,3,3,0,stimuli/TESTscenes/JB_1.jpg,Jungle,Malbow,stimuli/items/undersea_object_18.png,Undersea,object,si,stimuli/integrated/jungle_a_undersea_object_18.jpg,p,0,0.5414864999474958,None,0,0,0,0,0,3,3,3,26.505510124959983,,,,,,,,,,,,,,,,,,,,,,,,26.500524166971445,26.505510124959983,27.502666917047463,27.502839709050022,27.50884137500543,27.50884137500543,28.054216749966145,p,0,0.5414864999474958,None,28.054426625021733,28.06637491704896,29.05274970899336,29.091380874975584,,,550,001,,,2026-03-30_22h27.06.691,encodingtask,,2025.2.4,None,2026-03-30 22h27.07.004782 +0200,
1,4,4,0,stimuli/TESTscenes/UA_1.jpg,Undersea,Somar,stimuli/items/jungle_animal_27.png,Jungle,animal,si,stimuli/integrated/undersea_b_jungle_animal_27.jpg,q,1,0.3654516669921577,None,0,0,0,0,0,4,4,4,29.091380874975584,,,,,,,,,,,,,,,,,,,,,,,,29.086044959025458,29.091380874975584,31.059400959056802,31.05948100006208,31.06891029200051,31.06891029200051,31.437450667028315,q,1,0.3654516669921577,None,31.4376412499696,31.44873208401259,32.43593250005506,33.66660899994895,,,550,001,,,2026-03-30_22h27.06.691,encodingtask,,2025.2.4,None,2026-03-30 22h27.07.004782 +0200,
1,5,5,0,stimuli/TESTscenes/JB_1.jpg,Jungle,Malbow,stimuli/items/jungle_object_21.png,Jungle,object,sc,stimuli/integrated/jungle_b_jungle_object_21.jpg,p,1,0.4904672499978915,None,0,0,0,0,0,5,5,5,33.66660899994895,,,,,,,,,,,,,,,,,,,,,,,,33.65935612504836,33.66660899994895,34.45333541696891,34.45340937504079,34.469737709034234,34.469737709034234,34.97109479201026,p,1,0.4904672499978915,None,34.97124312503729,34.985727334045805,35.96945387497544,37.066335750045255,,,550,001,,,2026-03-30_22h27.06.691,encodingtask,,2025.2.4,None,2026-03-30 22h27.07.004782 +0200,
1,6,6,0,stimuli/TESTscenes/UA_1.jpg,Undersea,Somar,stimuli/items/jungle_object_2.png,Jungle,object,si,stimuli/integrated/undersea_a_jungle_object_2.jpg,p,0,0.8351916660321876,None,0,0,0,0,0,6,6,6,37.066335750045255,,,,,,,,,,,,,,,,,,,,,,,,37.0607507500099,37.066335750045255,37.97613179194741,37.97621966700535,37.985887333983555,37.985887333983555,38.82471745903604,p,0,0.8351916660321876,None,38.82480162498541,38.83511975000147,39.819598042056896,41.05135695904028,,,550,001,,,2026-03-30_22h27.06.691,encodingtask,,2025.2.4,None,2026-03-30 22h27.07.004782 +0200,
1,7,7,0,stimuli/TESTscenes/JB_1.jpg,Jungle,Malbow,stimuli/items/jungle_animal_1.png,Jungle,animal,sc,stimuli/integrated/jungle_a_jungle_animal_1.jpg,q,0,0.7443929580040276,None,0,0,0,0,0,7,7,7,41.05135695904028,,,,,,,,,,,,,,,,,,,,,,,,41.04239654203411,41.05135695904028,41.82625391695183,41.82633979199454,41.83567037503235,41.83567037503235,42.58719429199118,q,0,0.7443929580040276,None,42.587310250033624,42.59811899997294,43.58491466694977,43.61678666702937,,,550,001,,,2026-03-30_22h27.06.691,encodingtask,,2025.2.4,None,2026-03-30 22h27.07.004782 +0200,
1,8,8,0,stimuli/TESTscenes/UA_1.jpg,Undersea,Somar,stimuli/items/undersea_object_31.png,Undersea,object,sc,stimuli/integrated/undersea_b_undersea_object_31.jpg,p,1,0.40870729193557054,None,0,0,0,0,0,8,8,8,43.61678666702937,,,,,,,,,,,,,,,,,,,,,,,,43.61227675003465,43.61678666702937,45.59226641699206,45.592331249965355,45.60221658402588,45.60221658402588,46.020858166972175,p,1,0.40870729193557054,None,46.020972584025,46.031256334041245,47.019098291988485,48.24101866700221,,,550,001,,,2026-03-30_22h27.06.691,encodingtask,,2025.2.4,None,2026-03-30 22h27.07.004782 +0200,
1,9,9,0,stimuli/TESTscenes/JA_1.jpg,Jungle,Tulon,stimuli/items/undersea_object_7.png,Undersea,object,si,stimuli/integrated/jungle_b_undersea_object_7.jpg,q,1,0.7000076250405982,None,0,0,0,0,0,9,9,9,48.24101866700221,,,,,,,,,,,,,,,,,,,,,,,,48.2287743750494,48.24101866700221,49.0245284170378,49.02462124999147,49.03582920902409,49.03582920902409,49.73773954203352,q,1,0.7000076250405982,None,49.73787554202136,49.749694625032134,50.7362374169752,50.77481504203752,,,550,001,,,2026-03-30_22h27.06.691,encodingtask,,2025.2.4,None,2026-03-30 22h27.07.004782 +0200,
1,10,10,0,stimuli/TESTscenes/JB_1.jpg,Jungle,Malbow,stimuli/items/jungle_object_28.png,Jungle,object,sc,stimuli/integrated/jungle_b_jungle_object_28.jpg,p,1,0.6800057489890605,None,0,0,0,0,0,10,10,10,50.77481504203752,,,,,,,,,,,,,,,,,,,,,,,,50.76965129200835,50.77481504203752,52.74190204194747,52.74197695904877,52.75276970898267,52.75276970898267,53.43766558403149,p,1,0.6800057489890605,None,53.43784350005444,53.44907754205633,54.435955542023294,54.47232499998063,,,550,001,,,2026-03-30_22h27.06.691,encodingtask,,2025.2.4,None,2026-03-30 22h27.07.004782 +0200,
1,11,11,0,stimuli/TESTscenes/JA_1.jpg,Jungle,Tulon,stimuli/items/undersea_object_20.png,Undersea,object,si,stimuli/integrated/jungle_b_undersea_object_20.jpg,p,0,0.6933360829716548,None,0,0,0,0,0,11,11,11,54.47232499998063,,,,,,,,,,,,,,,,,,,,,,,,54.467067208955996,54.47232499998063,56.4416207090253,56.44169983395841,56.4521962919971,56.4521962919971,57.15422937495168,p,0,0.6933360829716548,None,57.15436020900961,57.16501516697463,58.15258766699117,59.34665258403402,,,550,001,,,2026-03-30_22h27.06.691,encodingtask,,2025.2.4,None,2026-03-30 22h27.07.004782 +0200,
1,12,12,0,stimuli/TESTscenes/UA_1.jpg,Undersea,Somar,stimuli/items/undersea_object_33.png,Undersea,object,sc,stimuli/integrated/undersea_b_undersea_object_33.jpg,p,1,0.8513446249999106,None,0,0,0,0,0,12,12,12,59.34665258403402,,,,,,,,,,,,,,,,,,,,,,,,59.340955166961066,59.34665258403402,60.15894420898985,60.15902820904739,60.16918800002895,60.16918800002895,61.02578787505627,p,1,0.8513446249999106,None,61.025935749989,61.03786033403594,62.02534316701349,63.07806512503885,,,550,001,,,2026-03-30_22h27.06.691,encodingtask,,2025.2.4,None,2026-03-30 22h27.07.004782 +0200,
1,13,13,0,stimuli/TESTscenes/UB_1.jpg,Undersea,Negvi,stimuli/items/undersea_animal_28.png,Undersea,animal,sc,stimuli/integrated/undersea_a_undersea_animal_28.jpg,None,0,,,0,0,0,0,0,13,13,13,63.07806512503885,,,,,,,,,,,,,,,,,,,,,,,,63.07255587505642,63.07806512503885,64.03619324997999,64.03625066694804,64.04110324999783,64.04110324999783,65.03461933403742,None,0,,,65.03470458404627,65.03936879197136,66.0248899590224,67.23257500003092,,,550,001,,,2026-03-30_22h27.06.691,encodingtask,,2025.2.4,None,2026-03-30 22h27.07.004782 +0200,
1,14,14,0,stimuli/TESTscenes/UA_1.jpg,Undersea,Somar,stimuli/items/undersea_object_37.png,Undersea,object,sc,stimuli/integrated/undersea_a_undersea_object_37.jpg,q,0,0.5036917079705745,None,0,0,0,0,0,14,14,14,67.23257500003092,,,,,,,,,,,,,,,,,,,,,,,,67.2129498750437,67.23257500003092,68.03590745897964,68.03610391705297,68.04272108396981,68.04272108396981,68.55378433398437,q,0,0.5036917079705745,None,68.55399174999911,68.56587100005709,69.55266666703392,70.56716833403334,,,550,001,,,2026-03-30_22h27.06.691,encodingtask,,2025.2.4,None,2026-03-30 22h27.07.004782 +0200,
1,15,15,0,stimuli/TESTscenes/JA_1.jpg,Jungle,Tulon,stimuli/items/undersea_object_5.png,Undersea,object,si,stimuli/integrated/jungle_b_undersea_object_5.jpg,q,1,0.5933995830127969,None,0,0,0,0,0,15,15,15,70.56716833403334,,,,,,,,,,,,,,,,,,,,,,,,70.56144595902879,70.56716833403334,71.55965679197107,71.55974833399523,71.5674509590026,71.5674509590026,72.17059766699094,q,1,0.5933995830127969,None,72.17075020901393,72.1820239169756,73.16930620896164,74.20909616700374,,,550,001,,,2026-03-30_22h27.06.691,encodingtask,,2025.2.4,None,2026-03-30 22h27.07.004782 +0200,
1,16,16,0,stimuli/TESTscenes/JB_1.jpg,Jungle,Malbow,stimuli/items/jungle_object_1.png,Jungle,object,sc,stimuli/integrated/jungle_a_jungle_object_1.jpg,q,0,0.4778060409007594,None,0,0,0,0,0,16,16,16,74.20909616700374,,,,,,,,,,,,,,,,,,,,,,,,74.20274029194843,74.20909616700374,75.17665325000416,75.17672141699586,75.18435933405999,75.18435933405999,75.67057058401406,q,0,0.4778060409007594,None,75.67075345898047,75.68243562499993,76.6695479999762,77.69124408403877,,,550,001,,,2026-03-30_22h27.06.691,encodingtask,,2025.2.4,None,2026-03-30 22h27.07.004782 +0200,
1,17,17,0,stimuli/TESTscenes/UB_1.jpg,Undersea,Negvi,stimuli/items/jungle_object_15.png,Jungle,object,si,stimuli/integrated/undersea_a_jungle_object_15.jpg,q,1,0.3524204579880461,None,0,0,0,0,0,17,17,17,77.69124408403877,,,,,,,,,,,,,,,,,,,,,,,,77.68568587501068,77.69124408403877,78.67605616699439,78.67615854204632,78.6847168749664,78.6847168749664,79.04297154198866,q,1,0.3524204579880461,None,79.04307574999984,79.05401091696694,80.04217324999627,80.0851480839774,,,550,001,,,2026-03-30_22h27.06.691,encodingtask,,2025.2.4,None,2026-03-30 22h27.07.004782 +0200,
1,18,18,0,stimuli/TESTscenes/UA_1.jpg,Undersea,Somar,stimuli/items/jungle_object_38.png,Jungle,object,si,stimuli/integrated/undersea_a_jungle_object_38.jpg,p,0,0.40435579093173146,None,0,0,0,0,0,18,18,18,80.0851480839774,,,,,,,,,,,,,,,,,,,,,,,,80.0792108749738,80.0851480839774,82.05210662505124,82.05222508404404,82.05869287496898,82.05869287496898,82.47053175000474,p,0,0.40435579093173146,None,82.47076120902784,82.48427050001919,83.4687277500052,83.51034958404489,,,550,001,,,2026-03-30_22h27.06.691,encodingtask,,2025.2.4,None,2026-03-30 22h27.07.004782 +0200,
1,19,19,0,stimuli/TESTscenes/UB_1.jpg,Undersea,Negvi,stimuli/items/undersea_animal_19.png,Undersea,animal,sc,stimuli/integrated/undersea_a_undersea_animal_19.jpg,None,0,,,0,0,0,0,0,19,19,19,83.51034958404489,,,,,,,,,,,,,,,,,,,,,,,,83.50508583395276,83.51034958404489,85.47465879202355,85.47473524999805,85.4850560000632,85.4850560000632,86.468975875061,None,0,,,86.46908891701605,86.47464687505271,87.45747954200488,88.53138095897157,86.47464687505271,86.47464687505271,550,001,,,2026-03-30_22h27.06.691,encodingtask,,2025.2.4,None,2026-03-30 22h27.07.004782 +0200,
1,20,20,0,stimuli/TESTscenes/JB_1.jpg,Jungle,Malbow,stimuli/items/undersea_animal_5.png,Undersea,animal,si,stimuli/integrated/jungle_b_undersea_animal_5.jpg,p,0,0.6276046250713989,None,0,0,0,0,0,20,20,20,88.53138095897157,,,,,,,,,,,,,,,,,,,,,,,,88.52477554196957,88.53138095897157,89.47478837496601,89.47487733396702,89.48512962495442,89.48512962495442,90.12077545898501,p,0,0.6276046250713989,None,90.12092887505423,90.13260479201563,91.11910245905165,91.1588222499704,,,550,001,,,2026-03-30_22h27.06.691,encodingtask,,2025.2.4,None,2026-03-30 22h27.07.004782 +0200,
1,21,21,0,stimuli/TESTscenes/UA_1.jpg,Undersea,Somar,stimuli/items/jungle_animal_19.png,Jungle,animal,si,stimuli/integrated/undersea_b_jungle_animal_19.jpg,p,0,0.4746199579676613,None,0,0,0,0,0,21,21,21,91.1588222499704,,,,,,,,,,,,,,,,,,,,,,,,91.1533853339497,91.1588222499704,93.12399075005669,93.12406612501945,93.1351755419746,93.1351755419746,93.62040050001815,p,0,0.4746199579676613,None,93.6205149589805,93.6310649169609,94.61883745901287,95.82005670899525,,,550,001,,,2026-03-30_22h27.06.691,encodingtask,,2025.2.4,None,2026-03-30 22h27.07.004782 +0200,
1,22,22,0,stimuli/TESTscenes/JA_1.jpg,Jungle,Tulon,stimuli/items/undersea_animal_40.png,Undersea,animal,si,stimuli/integrated/jungle_b_undersea_animal_40.jpg,p,0,0.6735612499760464,None,0,0,0,0,0,22,22,22,95.82005670899525,,,,,,,,,,,,,,,,,,,,,,,,95.81246766704135,95.82005670899525,96.62543662497774,96.62553241697606,96.63504237495363,96.63504237495363,97.3206413340522,p,0,0.6735612499760464,None,97.32079829205759,97.33280350000132,98.31857595895417,99.4016385419527,,,550,001,,,2026-03-30_22h27.06.691,encodingtask,,2025.2.4,None,2026-03-30 22h27.07.004782 +0200,
1,23,23,0,stimuli/TESTscenes/JB_1.jpg,Jungle,Malbow,stimuli/items/undersea_object_2.png,Undersea,object,si,stimuli/integrated/jungle_b_undersea_object_2.jpg,None,0,,,0,0,0,0,0,23,23,23,99.4016385419527,,,,,,,,,,,,,,,,,,,,,,,,99.39618325000629,99.4016385419527,100.3255051249871,100.32560183398891,100.33546974998899,100.33546974998899,101.31896299996879,None,0,,,101.31902837497182,101.32349874998908,102.30779137497302,102.3462837090483,101.32349874998908,101.32349874998908,550,001,,,2026-03-30_22h27.06.691,encodingtask,,2025.2.4,None,2026-03-30 22h27.07.004782 +0200,
1,24,24,0,stimuli/TESTscenes/UA_1.jpg,Undersea,Somar,stimuli/items/jungle_object_8.png,Jungle,object,si,stimuli/integrated/undersea_b_jungle_object_8.jpg,None,0,,,0,0,0,0,0,24,24,24,102.3462837090483,,,,,,,,,,,,,,,,,,,,,,,,102.34082804201171,102.3462837090483,104.32494933402631,104.32503570895642,104.3350772500271,104.3350772500271,105.31892191700172,None,0,,,105.31905329204164,105.32494225003757,106.31869345903397,107.31492529204115,105.32494225003757,105.32494225003757,550,001,,,2026-03-30_22h27.06.691,encodingtask,,2025.2.4,None,2026-03-30 22h27.07.004782 +0200,
1,25,25,0,stimuli/TESTscenes/JA_1.jpg,Jungle,Tulon,stimuli/items/undersea_animal_7.png,Undersea,animal,si,stimuli/integrated/jungle_a_undersea_animal_7.jpg,p,0,0.6266589999431744,None,0,0,0,0,0,25,25,25,107.31492529204115,,,,,,,,,,,,,,,,,,,,,,,,107.30958416697104,107.31492529204115,108.32488858397119,108.3249725420028,108.33513795898762,108.33513795898762,108.96977716695983,p,0,0.6266589999431744,None,108.9699095840333,108.9808244589949,109.968909624964,111.06776100001298,,,550,001,,,2026-03-30_22h27.06.691,encodingtask,,2025.2.4,None,2026-03-30 22h27.07.004782 +0200,
1,26,26,0,stimuli/TESTscenes/UB_1.jpg,Undersea,Negvi,stimuli/items/undersea_animal_14.png,Undersea,animal,sc,stimuli/integrated/undersea_b_undersea_animal_14.jpg,q,0,0.48880883294623345,None,0,0,0,0,0,26,26,26,111.06776100001298,,,,,,,,,,,,,,,,,,,,,,,,111.06207833404187,111.06776100001298,111.9729485840071,111.97302925004624,111.98389820905868,111.98389820905868,112.47410733404104,q,0,0.48880883294623345,None,112.47419266705401,112.48434029205237,113.46892550005578,113.50772800005507,,,550,001,,,2026-03-30_22h27.06.691,encodingtask,,2025.2.4,None,2026-03-30 22h27.07.004782 +0200,
1,27,27,0,stimuli/TESTscenes/JB_1.jpg,Jungle,Malbow,stimuli/items/jungle_animal_41.png,Jungle,animal,sc,stimuli/integrated/jungle_b_jungle_animal_41.jpg,q,0,0.417721166042611,None,0,0,0,0,0,27,27,27,113.50772800005507,,,,,,,,,,,,,,,,,,,,,,,,113.5021956670098,113.50772800005507,115.48537024995312,115.48545858403668,115.49094541696832,115.49094541696832,115.92027408396825,q,0,0.417721166042611,None,115.92045191698708,115.93216399999801,116.9188376669772,118.0543737920234,,,550,001,,,2026-03-30_22h27.06.691,encodingtask,,2025.2.4,None,2026-03-30 22h27.07.004782 +0200,
1,28,28,0,stimuli/TESTscenes/JA_1.jpg,Jungle,Tulon,stimuli/items/jungle_animal_28.png,Jungle,animal,sc,stimuli/integrated/jungle_b_jungle_animal_28.jpg,q,0,0.5496950000524521,None,0,0,0,0,0,28,28,28,118.0543737920234,,,,,,,,,,,,,,,,,,,,,,,,118.0488295420073,118.0543737920234,118.92457949998789,118.92466279200744,118.93483179202303,118.93483179202303,119.48653245903552,q,0,0.5496950000524521,None,119.48668254201766,119.49850470898673,120.48525499994867,121.69725229195319,,,550,001,,,2026-03-30_22h27.06.691,encodingtask,,2025.2.4,None,2026-03-30 22h27.07.004782 +0200,
1,29,29,0,stimuli/TESTscenes/UA_1.jpg,Undersea,Somar,stimuli/items/undersea_animal_17.png,Undersea,animal,sc,stimuli/integrated/undersea_a_undersea_animal_17.jpg,q,0,0.47592925000935793,None,0,0,0,0,0,29,29,29,121.69725229195319,,,,,,,,,,,,,,,,,,,,,,,,121.68737191695254,121.69725229195319,122.49071379203815,122.49078075005673,122.50147654197644,122.50147654197644,122.98605841700919,q,0,0.47592925000935793,None,122.98614537494723,122.9955989170121,123.98544158402365,125.06943133403547,,,550,001,,,2026-03-30_22h27.06.691,encodingtask,,2025.2.4,None,2026-03-30 22h27.07.004782 +0200,
1,30,30,0,stimuli/TESTscenes/JA_1.jpg,Jungle,Tulon,stimuli/items/jungle_object_18.png,Jungle,object,sc,stimuli/integrated/jungle_a_jungle_object_18.jpg,q,0,0.3616300829453394,None,0,0,0,0,0,30,30,30,125.06943133403547,,,,,,,,,,,,,,,,,,,,,,,,125.06388170900755,125.06943133403547,125.99208304204512,125.99216645897832,126.00174683402292,126.00174683402292,126.36964637495112,q,0,0.3616300829453394,None,126.36976050003432,126.38060045905877,127.368851333973,128.69435966701712,,,550,001,,,2026-03-30_22h27.06.691,encodingtask,,2025.2.4,None,2026-03-30 22h27.07.004782 +0200,
1,31,31,0,stimuli/TESTscenes/JB_1.jpg,Jungle,Malbow,stimuli/items/undersea_object_24.png,Undersea,object,si,stimuli/integrated/jungle_b_undersea_object_24.jpg,q,1,0.36100741592235863,None,0,0,0,0,0,31,31,31,128.69435966701712,,,,,,,,,,,,,,,,,,,,,,,,128.68400374997873,128.69435966701712,129.37366687494796,129.37374862504657,129.38520033401437,129.38520033401437,129.75357924995478,q,1,0.36100741592235863,None,129.75378533406183,129.7651141670067,130.75195466703735,131.8100382089615,,,550,001,,,2026-03-30_22h27.06.691,encodingtask,,2025.2.4,None,2026-03-30 22h27.07.004782 +0200,
1,32,32,0,stimuli/TESTscenes/JA_1.jpg,Jungle,Tulon,stimuli/items/jungle_animal_25.png,Jungle,animal,sc,stimuli/integrated/jungle_a_jungle_animal_25.jpg,p,1,0.6916199580300599,None,0,0,0,0,0,32,32,32,131.8100382089615,,,,,,,,,,,,,,,,,,,,,,,,131.8048018750269,131.8100382089615,132.75665274995845,132.75672125001438,132.76846212497912,132.76846212497912,133.4696012090426,p,1,0.6916199580300599,None,133.4696837499505,133.4792384590255,134.4684357920196,135.56751345901284,,,550,001,,,2026-03-30_22h27.06.691,encodingtask,,2025.2.4,None,2026-03-30 22h27.07.004782 +0200,
1,33,33,0,stimuli/TESTscenes/JB_1.jpg,Jungle,Malbow,stimuli/items/undersea_object_4.png,Undersea,object,si,stimuli/integrated/jungle_a_undersea_object_4.jpg,p,0,0.6572910830145702,None,0,0,0,0,0,33,33,33,135.56751345901284,,,,,,,,,,,,,,,,,,,,,,,,135.56120400002692,135.56751345901284,136.47461050003767,136.4746828339994,136.48473229201045,136.48473229201045,137.15412762505002,p,0,0.6572910830145702,None,137.15439320902806,137.16579833405558,138.15216945903376,138.1850846670568,,,550,001,,,2026-03-30_22h27.06.691,encodingtask,,2025.2.4,None,2026-03-30 22h27.07.004782 +0200,
1,34,34,0,stimuli/TESTscenes/UB_1.jpg,Undersea,Negvi,stimuli/items/undersea_animal_34.png,Undersea,animal,sc,stimuli/integrated/undersea_b_undersea_animal_34.jpg,None,0,,,0,0,0,0,0,34,34,34,138.1850846670568,,,,,,,,,,,,,,,,,,,,,,,,138.17982470896095,138.1850846670568,140.15941266703885,140.15950487495866,140.1673547499813,140.1673547499813,141.1519787920406,None,0,,,141.1521182920551,141.1584986669477,142.14131729200017,143.1697508340003,141.1584986669477,141.1584986669477,550,001,,,2026-03-30_22h27.06.691,encodingtask,,2025.2.4,None,2026-03-30 22h27.07.004782 +0200,
1,35,35,0,stimuli/TESTscenes/JB_1.jpg,Jungle,Malbow,stimuli/items/jungle_object_7.png,Jungle,object,sc,stimuli/integrated/jungle_a_jungle_object_7.jpg,p,1,0.3531175829702988,None,0,0,0,0,0,35,35,35,143.1697508340003,,,,,,,,,,,,,,,,,,,,,,,,143.16432104201522,143.1697508340003,144.1575958749745,144.15767258405685,144.167801334057,144.167801334057,144.52514833398163,p,1,0.3531175829702988,None,144.52526933397166,144.5373323749518,145.52395199995954,146.56067037500907,,,550,001,,,2026-03-30_22h27.06.691,encodingtask,,2025.2.4,None,2026-03-30 22h27.07.004782 +0200,
1,36,36,0,stimuli/TESTscenes/UA_1.jpg,Undersea,Somar,stimuli/items/jungle_animal_3.png,Jungle,animal,si,stimuli/integrated/undersea_a_jungle_animal_3.jpg,q,1,0.4021676250267774,None,0,0,0,0,0,36,36,36,146.56067037500907,,,,,,,,,,,,,,,,,,,,,,,,146.555315042031,146.56067037500907,147.53535220900085,147.53544529201463,147.54168341704644,147.54168341704644,147.9526134589687,q,1,0.4021676250267774,None,147.95269770896994,147.96218837494962,148.95180966705084,149.9475758339977,,,550,001,,,2026-03-30_22h27.06.691,encodingtask,,2025.2.4,None,2026-03-30 22h27.07.004782 +0200,
1,37,37,0,stimuli/TESTscenes/UB_1.jpg,Undersea,Negvi,stimuli/items/jungle_animal_18.png,Jungle,animal,si,stimuli/integrated/undersea_b_jungle_animal_18.jpg,q,1,0.6672976659610868,None,0,0,0,0,0,37,37,37,149.9475758339977,,,,,,,,,,,,,,,,,,,,,,,,149.94218308397103,149.9475758339977,150.95805524999741,150.95813295897096,150.9682996670017,150.9682996670017,151.64274679205846,q,1,0.6672976659610868,None,151.64286237501074,151.65368162503,152.64123229205143,152.67797879199497,,,550,001,,,2026-03-30_22h27.06.691,encodingtask,,2025.2.4,None,2026-03-30 22h27.07.004782 +0200,
1,38,38,0,stimuli/TESTscenes/UA_1.jpg,Undersea,Somar,stimuli/items/undersea_animal_22.png,Undersea,animal,sc,stimuli/integrated/undersea_b_undersea_animal_22.jpg,q,0,0.6279576240340248,None,0,0,0,0,0,38,38,38,152.67797879199497,,,,,,,,,,,,,,,,,,,,,,,,152.6728474169504,152.67797879199497,154.65157529199496,154.651727959048,154.65757658402435,154.65757658402435,155.29130987497047,q,0,0.6279576240340248,None,155.29143149999436,155.30374533403665,156.29099666699767,,,,550,001,,,2026-03-30_22h27.06.691,encodingtask,,2025.2.4,None,2026-03-30 22h27.07.004782 +0200,
,39,39,0,stimuli/TESTscenes/UB_1.jpg,Undersea,Negvi,stimuli/items/jungle_animal_42.png,Jungle,animal,si,stimuli/integrated/undersea_a_jungle_animal_42.jpg,,,,,,,,,0,39,39,39,,,,,,,,,,,,,,,,,,,,,,,,,,,,,,,,,,,,,,,,,,,,,,,,,,,,
